* Sea-Bird SBE19plus Data File:
* FileName = D:\2016\Estaciones\E8001.hex
* Software Version 1.59
* Temperature SN =  6130
* Conductivity SN =  6130
* System UpLoad Time = Dec 12 2016 13:25:15
** Ship: Aldebaranaldebaran
** Longitud:5212.47
** Latitud:3510.15
** Estacion:E8
** z:
** observaciones:
* ds
* SBE 19plus V 2.5.2  SERIAL NO. 6130    12 Dec 2016 09:24:17
* vbatt = 12.6, vlith =  8.5, ioper =  61.9 ma, ipump =  43.5 ma,
* iext01 =  31.4 ma, iext2345 =  40.5 ma
* status = not logging
* number of scans to average = 1
* samples = 19696, free = 3443364, casts = 6
* mode = profile, minimum cond freq = 3128, pump delay = 60 sec
* autorun = no, ignore magnetic switch = no
* battery type = alkaline, battery cutoff =  7.5 volts
* pressure sensor = strain gauge, range = 508.0
* SBE 38 = no, WETLABS = no, OPTODE = no, SBE63 = no, Gas Tension Device = no
* Ext Volt 0 = yes, Ext Volt 1 = yes
* Ext Volt 2 = yes, Ext Volt 3 = no
* Ext Volt 4 = yes, Ext Volt 5 = no
* echo characters = yes
* output format = raw HEX

* S>
*
* SBE 19plus V 2.5.2  SERIAL NO. 6130    12 Dec 2016 09:24:23
* temperature:  22-Jul-16
*     TA0 = 1.280156e-03
*     TA1 = 2.583678e-04
*     TA2 = -1.395276e-08
*     TA3 = 1.390246e-07
*     TOFFSET = 0.000000e+00
* conductivity:  22-Jul-16
*     G = -1.023657e+00
*     H = 1.493062e-01
*     I = -5.632062e-04
*     J = 6.518213e-05
*     CPCOR = -9.570000e-08
*     CTCOR = 3.250000e-06
*     CSLOPE = 1.000000e+00
* pressure S/N = 2711888, range = 508 psia:  21-Jul-16
*     PA0 = 6.515467e-02
*     PA1 = 1.544241e-03
*     PA2 = 6.136531e-12
*     PTCA0 = 5.241084e+05
*     PTCA1 = 5.473716e+00
*     PTCA2 = -1.533652e-01
*     PTCB0 = 2.590087e+01
*     PTCB1 = 7.750000e-04
*     PTCB2 = 0.000000e+00
*     PTEMPA0 = -6.286242e+01
*     PTEMPA1 = 5.416207e+01
*     PTEMPA2 = -2.960267e-01
*     POFFSET = 0.000000e+00
* volt 0: offset = -4.602000e-02, slope = 1.252711e+00
* volt 1: offset = -4.693579e-02, slope = 1.254109e+00
* volt 2: offset = -4.649053e-02, slope = 1.252902e+00
* volt 3: offset = -4.816842e-02, slope = 1.253247e+00
* volt 4: offset = -4.683579e-02, slope = 1.252668e+00
* volt 5: offset = -4.772737e-02, slope = 1.253371e+00
*     EXTFREQSF = 9.999889e-01
* dh
* cast   1 10 Dec 2016 06:16:51 samples 1 to 3069, avg = 1, stop = mag switch

* S>
# nquan = 7
# nvalues = 3069                                  
# units = specified
# name 0 = tv290C: Temperature [ITS-90, deg C]
# name 1 = c0S/m: Conductivity [S/m]
# name 2 = prdM: Pressure, Strain Gauge [db]
# name 3 = f0: Frequency 0
# name 4 = f1: Frequency 1
# name 5 = f2: Frequency 2
# name 6 = flag:  0.000e+00
# span 0 =    18.1981,    22.0342                 
# span 1 =   0.008161,   5.064101                 
# span 2 =     -0.109,    222.886                 
# span 3 =     303657,     351667                 
# span 4 =   2637.965,   6405.652                 
# span 5 =     533536,     742921                 
# span 6 = 0.0000e+00, 0.0000e+00                 
# interval = seconds: 0.25
# start_time = Dec 10 2016 06:16:51 [Instrument's time stamp, header]
# bad_flag = -9.990e-29
# <Sensors count="7" >
#   <sensor Channel="1" >
#     <!-- Count, Temperature -->
#     <TemperatureSensor SensorID="58" >
#       <SerialNumber>6130</SerialNumber>
#       <CalibrationDate>22-Jul-16</CalibrationDate>
#       <A0>1.28015621e-003</A0>
#       <A1>2.58367774e-004</A1>
#       <A2>-1.39527596e-008</A2>
#       <A3>1.39024630e-007</A3>
#       <Slope>1.00000000</Slope>
#       <Offset>0.0000</Offset>
#     </TemperatureSensor>
#   </sensor>
#   <sensor Channel="2" >
#     <!-- Frequency 0, Conductivity -->
#     <ConductivitySensor SensorID="3" >
#       <SerialNumber>6130</SerialNumber>
#       <CalibrationDate>22-Jul-16</CalibrationDate>
#       <UseG_J>1</UseG_J>
#       <!-- Cell const and series R are applicable only for wide range sensors. -->
#       <SeriesR>0.0000</SeriesR>
#       <CellConst>2000.0000</CellConst>
#       <ConductivityType>0</ConductivityType>
#       <Coefficients equation="0" >
#         <A>0.00000000e+000</A>
#         <B>0.00000000e+000</B>
#         <C>0.00000000e+000</C>
#         <D>0.00000000e+000</D>
#         <M>0.0</M>
#         <CPcor>-9.57000000e-008</CPcor>
#       </Coefficients>
#       <Coefficients equation="1" >
#         <G>-1.02365730e+000</G>
#         <H>1.49306223e-001</H>
#         <I>-5.63206187e-004</I>
#         <J>6.51821272e-005</J>
#         <CPcor>-9.57000000e-008</CPcor>
#         <CTcor>3.2500e-006</CTcor>
#         <!-- WBOTC not applicable unless ConductivityType = 1. -->
#         <WBOTC>0.00000000e+000</WBOTC>
#       </Coefficients>
#       <Slope>1.00000000</Slope>
#       <Offset>0.00000</Offset>
#     </ConductivitySensor>
#   </sensor>
#   <sensor Channel="3" >
#     <!-- Count, Pressure, Strain Gauge -->
#     <PressureSensor SensorID="46" >
#       <SerialNumber>6130</SerialNumber>
#       <CalibrationDate>21-Jul-16</CalibrationDate>
#       <PA0>6.51546669e-002</PA0>
#       <PA1>1.54424116e-003</PA1>
#       <PA2>6.13653149e-012</PA2>
#       <PTEMPA0>-6.28624239e+001</PTEMPA0>
#       <PTEMPA1>5.41620689e+001</PTEMPA1>
#       <PTEMPA2>-2.96026659e-001</PTEMPA2>
#       <PTCA0>5.24108391e+005</PTCA0>
#       <PTCA1>5.47371611e+000</PTCA1>
#       <PTCA2>-1.53365246e-001</PTCA2>
#       <PTCB0>2.59008750e+001</PTCB0>
#       <PTCB1>7.75000000e-004</PTCB1>
#       <PTCB2>0.00000000e+000</PTCB2>
#       <Offset>0.000000</Offset>
#     </PressureSensor>
#   </sensor>
#   <sensor Channel="4" >
#     <!-- A/D voltage 0, Fluorometer, WET Labs ECO-AFL/FL -->
#     <FluoroWetlabECO_AFL_FL_Sensor SensorID="20" >
#       <SerialNumber>FLNTURT-1102</SerialNumber>
#       <CalibrationDate>22-Aug-2016</CalibrationDate>
#       <ScaleFactor>1.00000000e+001</ScaleFactor>
#       <!-- Dark output -->
#       <Vblank>0.0680</Vblank>
#     </FluoroWetlabECO_AFL_FL_Sensor>
#   </sensor>
#   <sensor Channel="5" >
#     <!-- A/D voltage 1, Turbidity Meter, WET Labs, ECO-NTU -->
#     <TurbidityMeter SensorID="67" >
#       <SerialNumber>FLNTURT-1102</SerialNumber>
#       <CalibrationDate>22-Aug-2016</CalibrationDate>
#       <ScaleFactor>5.000000</ScaleFactor>
#       <!-- Dark output -->
#       <DarkVoltage>0.059000</DarkVoltage>
#     </TurbidityMeter>
#   </sensor>
#   <sensor Channel="6" >
#     <!-- A/D voltage 2, Fluorometer, WET Labs ECO CDOM -->
#     <FluoroWetlabCDOM_Sensor SensorID="19" >
#       <SerialNumber>WSCD-1273</SerialNumber>
#       <CalibrationDate>18-Aug-2016</CalibrationDate>
#       <ScaleFactor>35.000</ScaleFactor>
#       <!-- Dark output -->
#       <Vblank>0.083</Vblank>
#     </FluoroWetlabCDOM_Sensor>
#   </sensor>
#   <sensor Channel="7" >
#     <!-- A/D voltage 3, PAR/Irradiance, Biospherical/Licor -->
#     <PAR_BiosphericalLicorChelseaSensor SensorID="42" >
#       <SerialNumber>70194</SerialNumber>
#       <CalibrationDate>26-Aug-2016</CalibrationDate>
#       <M>1.00000000</M>
#       <B>0.00000000</B>
#       <CalibrationConstant>11494000000.00000000</CalibrationConstant>
#       <Multiplier>1.00000000</Multiplier>
#       <Offset>-0.08898550</Offset>
#     </PAR_BiosphericalLicorChelseaSensor>
#   </sensor>
# </Sensors>
# datcnv_date = May 09 2017 10:39:44, 7.26.4.22 [datcnv_vars = 6]
# datcnv_in = I:\users\GIkeda\User Data\19plusV2 - Leonardo Ortega\E8001.hex I:\users\GIkeda\User Data\19plusV2 - Leonardo Ortega\SBE19plusV2_6130.xmlcon
# datcnv_skipover = 0
# file_type = ascii
*END*
    20.4459   0.008453     -0.105     322798   2638.340     533539  0.000e+00
    20.4451   0.008420     -0.106     322808   2638.297     533538  0.000e+00
    20.4436   0.008423     -0.104     322827   2638.301     533540  0.000e+00
    20.4427   0.008402     -0.107     322838   2638.273     533537  0.000e+00
    20.4413   0.008380     -0.105     322855   2638.246     533539  0.000e+00
    20.4401   0.008344     -0.104     322870   2638.199     533540  0.000e+00
    20.4390   0.008304     -0.107     322884   2638.148     533537  0.000e+00
    20.4375   0.008292     -0.106     322902   2638.133     533538  0.000e+00
    20.4360   0.008277     -0.105     322921   2638.113     533539  0.000e+00
    20.4348   0.008264     -0.106     322935   2638.098     533538  0.000e+00
    20.4337   0.008234     -0.106     322949   2638.059     533538  0.000e+00
    20.4327   0.008225     -0.106     322961   2638.047     533538  0.000e+00
    20.4316   0.008200     -0.105     322975   2638.016     533539  0.000e+00
    20.4307   0.008188     -0.102     322986   2638.000     533542  0.000e+00
    20.4298   0.008161     -0.104     322998   2637.965     533540  0.000e+00
    20.4287   0.008313     -0.102     323011   2638.160     533542  0.000e+00
    20.4271   0.008447     -0.103     323031   2638.332     533541  0.000e+00
    20.4261   0.008435     -0.103     323043   2638.316     533541  0.000e+00
    20.4250   0.008356     -0.103     323057   2638.215     533541  0.000e+00
    20.4233   0.008816     -0.102     323078   2638.805     533542  0.000e+00
    20.4224   0.009100     -0.103     323089   2639.168     533541  0.000e+00
    20.4219   0.009219     -0.102     323095   2639.320     533542  0.000e+00
    20.4213   0.009414     -0.101     323103   2639.570     533543  0.000e+00
    20.4206   0.009762     -0.102     323111   2640.016     533542  0.000e+00
    20.4197   0.009634     -0.101     323123   2639.852     533543  0.000e+00
    20.4196   0.009707     -0.102     323124   2639.945     533542  0.000e+00
    20.4188   0.009866     -0.103     323134   2640.148     533541  0.000e+00
    20.4185   0.010022     -0.102     323137   2640.348     533542  0.000e+00
    20.4179   0.010242     -0.104     323145   2640.629     533540  0.000e+00
    20.4183   0.010467     -0.102     323140   2640.918     533542  0.000e+00
    20.4186   0.010605     -0.102     323136   2641.094     533542  0.000e+00
    20.4190   0.010733     -0.100     323131   2641.258     533544  0.000e+00
    20.4193   0.010849     -0.098     323127   2641.406     533546  0.000e+00
    20.4194   0.011072     -0.101     323126   2641.691     533543  0.000e+00
    20.4199   0.011206     -0.100     323120   2641.863     533544  0.000e+00
    20.4197   0.011445     -0.101     323122   2642.168     533543  0.000e+00
    20.4189   0.011808     -0.101     323132   2642.633     533543  0.000e+00
    20.4183   0.012147     -0.101     323140   2643.066     533543  0.000e+00
    20.4181   0.012306     -0.103     323142   2643.270     533541  0.000e+00
    20.4173   0.012538     -0.100     323152   2643.566     533544  0.000e+00
    20.4158   0.012765     -0.102     323171   2643.855     533542  0.000e+00
    20.4155   0.012902     -0.103     323174   2644.031     533541  0.000e+00
    20.4151   0.012862     -0.102     323179   2643.980     533542  0.000e+00
    20.4143   0.012896     -0.100     323189   2644.023     533544  0.000e+00
    20.4142   0.012731     -0.100     323191   2643.813     533544  0.000e+00
    20.4138   0.012566     -0.101     323195   2643.602     533543  0.000e+00
    20.4141   0.012358     -0.101     323192   2643.336     533543  0.000e+00
    20.4137   0.012153     -0.100     323197   2643.074     533544  0.000e+00
    20.4135   0.011958     -0.101     323199   2642.824     533543  0.000e+00
    20.4125   0.011778     -0.100     323212   2642.594     533544  0.000e+00
    20.4124   0.011597     -0.101     323213   2642.363     533543  0.000e+00
    20.4114   0.011490     -0.101     323225   2642.227     533543  0.000e+00
    20.4100   0.011316     -0.104     323243   2642.004     533540  0.000e+00
    20.4095   0.011182     -0.103     323249   2641.832     533541  0.000e+00
    20.4090   0.011038     -0.104     323255   2641.648     533540  0.000e+00
    20.4078   0.010928     -0.104     323270   2641.508     533540  0.000e+00
    20.4072   0.010812     -0.104     323277   2641.359     533540  0.000e+00
    20.4065   0.011005     -0.103     323286   2641.605     533541  0.000e+00
    20.4061   0.011167     -0.103     323291   2641.813     533541  0.000e+00
    20.4051   0.010965     -0.103     323303   2641.555     533541  0.000e+00
    20.4038   0.010696     -0.101     323320   2641.211     533543  0.000e+00
    20.4028   0.010599     -0.105     323332   2641.086     533539  0.000e+00
    20.4017   0.010550     -0.102     323346   2641.023     533542  0.000e+00
    20.3996   0.010599     -0.100     323371   2641.086     533544  0.000e+00
    20.3988   0.010565     -0.097     323381   2641.043     533547  0.000e+00
    20.3979   0.010431     -0.098     323393   2640.871     533546  0.000e+00
    20.3965   0.010351     -0.099     323410   2640.770     533545  0.000e+00
    20.3951   0.010409     -0.098     323427   2640.844     533546  0.000e+00
    20.3954   0.010358     -0.098     323424   2640.777     533546  0.000e+00
    20.3949   0.010257      0.008     323430   2640.648     533645  0.000e+00
    20.3942   0.010229      0.324     323439   2640.613     533942  0.000e+00
    20.3932   0.010150      0.556     323451   2640.512     534160  0.000e+00
    20.3927   0.010077      0.765     323457   2640.418     534357  0.000e+00
    20.3921   0.010028      0.943     323464   2640.355     534524  0.000e+00
    20.3914   0.010003      1.085     323473   2640.324     534657  0.000e+00
    20.3898   0.009958      1.223     323493   2640.266     534787  0.000e+00
    20.3888   0.009942      1.391     323506   2640.246     534945  0.000e+00
    20.3883   0.009918      1.622     323512   2640.215     535162  0.000e+00
    20.3871   0.009887      1.899     323526   2640.176     535422  0.000e+00
    20.3869   0.010287      2.174     323529   2640.688     535681  0.000e+00
    20.3867   0.010345      2.315     323531   2640.762     535813  0.000e+00
    20.3868   0.010226      2.364     323530   2640.609     535859  0.000e+00
    20.3867   0.010010      2.433     323532   2640.332     535924  0.000e+00
    20.3860   0.010000      2.482     323540   2640.320     535970  0.000e+00
    20.3850   0.009976      2.480     323552   2640.289     535968  0.000e+00
    20.3850   0.009854      2.434     323553   2640.133     535925  0.000e+00
    20.3841   0.010358      2.367     323564   2640.777     535862  0.000e+00
    20.3821   0.096053      2.271     323589   2748.246     535772  0.000e+00
    20.3805   0.134922      2.135     323608   2795.633     535644  0.000e+00
    20.3793   0.253420      1.986     323623   2935.391     535504  0.000e+00
    20.3775   0.305059      1.826     323645   2994.258     535354  0.000e+00
    20.3757   0.281265      1.670     323668   2967.277     535207  0.000e+00
    20.3750   0.311195      1.574     323677   3001.176     535117  0.000e+00
    20.3750   0.334697      1.563     323677   3027.527     535107  0.000e+00
    20.3775   0.280407      1.623     323645   2966.301     535163  0.000e+00
    20.3811   0.307047      1.720     323601   2996.500     535254  0.000e+00
    20.3854   0.342511      1.826     323548   3036.238     535354  0.000e+00
    20.3905   0.408477      1.922     323484   3108.805     535444  0.000e+00
    20.3961   0.422300      1.993     323415   3123.797     535511  0.000e+00
    20.4021   0.363837      2.052     323340   3059.887     535566  0.000e+00
    20.4092   0.306430      2.090     323252   2995.805     535602  0.000e+00
    20.4170   0.466819      2.103     323156   3171.602     535614  0.000e+00
    20.4248   0.607242      2.097     323060   3317.879     535608  0.000e+00
    20.4312   0.493963      2.072     322980   3200.398     535585  0.000e+00
    20.4392   0.584019      2.035     322881   3294.137     535550  0.000e+00
    20.4476   0.524496      1.998     322777   3232.484     535515  0.000e+00
    20.4555   0.459237      1.964     322680   3163.512     535483  0.000e+00
    20.4631   0.560314      1.930     322585   3269.723     535451  0.000e+00
    20.4706   0.584506      1.902     322493   3294.637     535425  0.000e+00
    20.4778   0.535210      1.885     322404   3243.668     535409  0.000e+00
    20.4854   0.477629      1.902     322310   3183.102     535425  0.000e+00
    20.4923   0.417394      1.941     322224   3118.484     535462  0.000e+00
    20.4991   0.425124      2.009     322140   3126.852     535526  0.000e+00
    20.5054   0.525426      2.103     322063   3233.457     535614  0.000e+00
    20.5120   0.464972      2.224     321981   3169.633     535728  0.000e+00
    20.5321   0.510756      2.337     321733   3218.086     535834  0.000e+00
    20.5828   0.517793      2.419     321108   3225.469     535911  0.000e+00
    20.6461   0.514965      2.436     320329   3222.504     535927  0.000e+00
    20.7098   0.448307      2.400     319547   3151.813     535893  0.000e+00
    20.7598   0.412644      2.316     318935   3113.332     535814  0.000e+00
    20.7920   0.456788      2.192     318540   3160.895     535698  0.000e+00
    20.8173   0.505290      2.033     318231   3212.340     535548  0.000e+00
    20.8386   0.437959      1.839     317971   3140.695     535366  0.000e+00
    20.8562   0.477846      1.661     317756   3183.332     535199  0.000e+00
    20.8688   0.409253      1.580     317602   3109.648     535123  0.000e+00
    20.8780   0.403207      1.623     317490   3103.070     535163  0.000e+00
    20.8911   0.475121      1.740     317330   3180.438     535273  0.000e+00
    20.9060   0.411791      1.886     317148   3112.406     535410  0.000e+00
    20.9254   0.436739      2.044     316912   3139.383     535559  0.000e+00
    20.9465   0.365514      2.197     316655   3061.738     535702  0.000e+00
    20.9680   0.328514      2.297     316394   3020.617     535796  0.000e+00
    20.9892   0.425651      2.365     316136   3127.422     535860  0.000e+00
    21.0027   0.463356      2.412     315972   3167.910     535904  0.000e+00
    21.0081   0.458177      2.416     315907   3162.379     535908  0.000e+00
    21.0113   0.472314      2.381     315868   3177.453     535875  0.000e+00
    21.0106   0.519538      2.315     315876   3227.297     535813  0.000e+00
    21.0070   0.479685      2.231     315920   3185.285     535734  0.000e+00
    21.0028   0.516242      2.151     315971   3223.844     535659  0.000e+00
    21.0030   0.456174      2.068     315969   3160.238     535581  0.000e+00
    21.0085   0.514242      1.981     315902   3221.746     535499  0.000e+00
    21.0164   0.499700      1.894     315806   3206.453     535418  0.000e+00
    21.0248   0.475878      1.837     315704   3181.242     535364  0.000e+00
    21.0321   0.432371      1.806     315615   3134.676     535335  0.000e+00
    21.0351   0.423476      1.786     315579   3125.070     535316  0.000e+00
    21.0361   0.461175      1.775     315567   3165.582     535306  0.000e+00
    21.0370   0.390490      1.819     315556   3089.188     535347  0.000e+00
    21.0380   0.472046      1.933     315543   3177.168     535454  0.000e+00
    21.0401   0.424180      2.084     315518   3125.832     535596  0.000e+00
    21.0427   0.378591      2.208     315486   3076.141     535713  0.000e+00
    21.0462   0.380009      2.281     315444   3077.699     535781  0.000e+00
    21.0487   0.400769      2.306     315414   3100.414     535805  0.000e+00
    21.0496   0.412848      2.292     315403   3113.555     535792  0.000e+00
    21.0495   0.398624      2.246     315404   3098.074     535748  0.000e+00
    21.0503   0.442139      2.165     315394   3145.191     535672  0.000e+00
    21.0531   0.434730      2.049     315361   3137.219     535563  0.000e+00
    21.0579   0.448864      1.916     315302   3152.410     535438  0.000e+00
    21.0642   0.465385      1.793     315226   3170.074     535323  0.000e+00
    21.0697   0.465187      1.707     315159   3169.863     535242  0.000e+00
    21.0747   0.434639      1.674     315099   3137.121     535211  0.000e+00
    21.0800   0.410496      1.703     315035   3111.000     535238  0.000e+00
    21.0837   0.433816      1.774     314989   3136.234     535305  0.000e+00
    21.0856   0.393923      1.873     314966   3092.941     535398  0.000e+00
    21.0860   0.425727      2.003     314962   3127.504     535520  0.000e+00
    21.0856   0.357778      2.120     314966   3053.188     535630  0.000e+00
    21.0843   0.340742      2.238     314982   3034.270     535741  0.000e+00
    21.0822   0.327871      2.343     315008   3019.898     535840  0.000e+00
    21.0786   0.314679      2.402     315051   3005.098     535895  0.000e+00
    21.0743   0.300453      2.429     315104   2989.055     535920  0.000e+00
    21.0696   0.371596      2.440     315160   3068.445     535931  0.000e+00
    21.0645   0.556438      2.442     315222   3265.715     535933  0.000e+00
    21.0596   0.625937      2.416     315282   3336.871     535908  0.000e+00
    21.0578   0.528244      2.335     315304   3236.402     535832  0.000e+00
    21.0593   0.576329      2.212     315285   3286.238     535716  0.000e+00
    21.0625   0.596502      2.071     315246   3306.922     535584  0.000e+00
    21.0665   0.609200      1.940     315198   3319.875     535461  0.000e+00
    21.0710   0.575938      1.851     315143   3285.836     535377  0.000e+00
    21.0765   0.649234      1.791     315077   3360.387     535321  0.000e+00
    21.0823   0.598460      1.762     315006   3308.922     535294  0.000e+00
    21.0905   0.578142      1.758     314907   3288.102     535290  0.000e+00
    21.0981   0.510610      1.779     314815   3217.934     535310  0.000e+00
    21.1025   0.453820      1.818     314762   3157.719     535346  0.000e+00
    21.1037   0.478898      1.868     314747   3184.449     535393  0.000e+00
    21.1031   0.523049      1.931     314755   3230.973     535452  0.000e+00
    21.0999   0.501546      1.992     314793   3208.398     535510  0.000e+00
    21.0956   0.465253      2.044     314846   3169.934     535559  0.000e+00
    21.0899   0.420180      2.110     314915   3121.504     535621  0.000e+00
    21.0853   0.391343      2.180     314970   3090.121     535686  0.000e+00
    21.0807   0.379039      2.248     315026   3076.633     535750  0.000e+00
    21.0756   0.374097      2.322     315088   3071.199     535820  0.000e+00
    21.0688   0.340623      2.381     315170   3034.137     535875  0.000e+00
    21.0616   0.313592      2.383     315257   3003.875     535877  0.000e+00
    21.0562   0.302810      2.315     315323   2991.719     535813  0.000e+00
    21.0517   0.320246      2.214     315378   3011.352     535718  0.000e+00
    21.0479   0.482882      2.103     315423   3188.676     535614  0.000e+00
    21.0464   0.699255      1.989     315442   3410.328     535507  0.000e+00
    21.0469   0.659296      1.841     315436   3370.492     535368  0.000e+00
    21.0506   0.807250      1.625     315391   3515.730     535165  0.000e+00
    21.0559   0.864370      1.459     315326   3570.219     535009  0.000e+00
    21.0611   0.707941      1.453     315264   3418.926     535003  0.000e+00
    21.0672   0.641166      1.560     315190   3352.262     535104  0.000e+00
    21.0723   0.711182      1.754     315128   3422.129     535286  0.000e+00
    21.0751   0.687298      1.938     315094   3398.457     535459  0.000e+00
    21.0768   0.622175      2.074     315073   3333.059     535587  0.000e+00
    21.0787   0.540536      2.180     315050   3249.215     535686  0.000e+00
    21.0803   0.525313      2.255     315031   3233.340     535757  0.000e+00
    21.0818   0.626588      2.283     315013   3337.531     535783  0.000e+00
    21.0814   0.707463      2.263     315018   3418.453     535764  0.000e+00
    21.0803   0.617760      2.210     315031   3328.578     535715  0.000e+00
    21.0806   0.550872      2.132     315027   3259.949     535641  0.000e+00
    21.0811   0.558514      2.039     315021   3267.863     535554  0.000e+00
    21.0812   0.741798      1.957     315020   3452.234     535477  0.000e+00
    21.0802   0.831462      1.927     315032   3538.930     535449  0.000e+00
    21.0800   0.958956      1.956     315035   3658.660     535476  0.000e+00
    21.0811   1.117616      1.987     315021   3802.383     535505  0.000e+00
    21.0842   1.207879      2.000     314984   3881.766     535517  0.000e+00
    21.0895   1.296051      2.034     314919   3957.766     535549  0.000e+00
    21.0965   1.152974      2.042     314834   3833.676     535557  0.000e+00
    21.1034   0.982084      2.066     314751   3679.961     535579  0.000e+00
    21.1086   1.091739      2.073     314688   3779.316     535586  0.000e+00
    21.1115   1.294381      2.069     314653   3956.340     535582  0.000e+00
    21.1132   1.585303      2.042     314633   4197.387     535557  0.000e+00
    21.1156   1.616344      2.015     314603   4222.289     535531  0.000e+00
    21.1195   1.884765      1.999     314556   4431.746     535516  0.000e+00
    21.1233   1.907821      2.004     314510   4449.273     535521  0.000e+00
    21.1269   1.960932      2.039     314467   4489.387     535554  0.000e+00
    21.1298   2.284966      2.096     314432   4726.676     535607  0.000e+00
    21.1309   2.289061      2.169     314418   4729.598     535676  0.000e+00
    21.1304   2.245194      2.235     314424   4698.203     535738  0.000e+00
    21.1276   2.584746      2.282     314458   4935.938     535782  0.000e+00
    21.1230   2.543502      2.303     314514   4907.684     535802  0.000e+00
    21.1180   2.592603      2.299     314574   4941.301     535798  0.000e+00
    21.1150   2.551626      2.270     314611   4913.262     535771  0.000e+00
    21.1122   2.611067      2.221     314645   4953.883     535725  0.000e+00
    21.1093   2.601958      2.155     314679   4947.680     535663  0.000e+00
    21.1063   2.567799      2.086     314716   4924.348     535598  0.000e+00
    21.1032   2.583889      2.027     314754   4935.352     535543  0.000e+00
    21.0998   2.598766      1.989     314795   4945.504     535507  0.000e+00
    21.0961   2.591881      1.967     314840   4940.809     535486  0.000e+00
    21.0915   2.577162      1.976     314895   4930.754     535495  0.000e+00
    21.0860   2.554103      2.023     314962   4914.961     535539  0.000e+00
    21.0795   2.530080      2.087     315041   4898.453     535599  0.000e+00
    21.0724   2.507299      2.131     315126   4882.746     535640  0.000e+00
    21.0666   2.530653      2.157     315197   4898.848     535665  0.000e+00
    21.0613   2.563157      2.159     315261   4921.168     535667  0.000e+00
    21.0568   2.550926      2.136     315315   4912.781     535645  0.000e+00
    21.0531   2.587327      2.077     315361   4937.699     535590  0.000e+00
    21.0495   2.608434      1.990     315404   4952.090     535508  0.000e+00
    21.0468   2.569922      1.875     315437   4925.801     535400  0.000e+00
    21.0435   2.610494      1.735     315477   4953.492     535268  0.000e+00
    21.0409   2.562684      1.584     315508   4920.844     535126  0.000e+00
    21.0388   2.548639      1.453     315534   4911.211     535003  0.000e+00
    21.0369   2.562809      1.400     315557   4920.930     534953  0.000e+00
    21.0352   2.536922      1.453     315577   4903.160     535003  0.000e+00
    21.0333   2.513535      1.601     315601   4887.051     535142  0.000e+00
    21.0305   2.503205      1.787     315635   4879.918     535317  0.000e+00
    21.0275   2.528010      2.015     315671   4897.027     535531  0.000e+00
    21.0233   2.556894      2.230     315722   4916.875     535733  0.000e+00
    21.0199   2.510502      2.375     315763   4884.957     535870  0.000e+00
    21.0177   2.505778      2.472     315790   4881.695     535961  0.000e+00
    21.0159   2.502222      2.520     315812   4879.238     536006  0.000e+00
    21.0137   2.652619      2.536     315839   4982.078     536021  0.000e+00
    21.0114   2.724774      2.501     315866   5030.660     535988  0.000e+00
    21.0104   2.600268      2.415     315879   4946.527     535907  0.000e+00
    21.0114   2.674694      2.280     315867   4996.992     535780  0.000e+00
    21.0127   2.752063      2.123     315851   5048.910     535633  0.000e+00
    21.0155   2.704879      1.978     315817   5017.313     535497  0.000e+00
    21.0198   2.689707      1.899     315764   5007.109     535422  0.000e+00
    21.0251   2.687752      1.887     315700   5005.793     535411  0.000e+00
    21.0309   2.703396      1.924     315630   5016.316     535446  0.000e+00
    21.0345   2.686458      1.985     315586   5004.922     535503  0.000e+00
    21.0353   2.614145      2.059     315576   4955.977     535573  0.000e+00
    21.0354   2.616247      2.148     315575   4957.406     535656  0.000e+00
    21.0352   2.657620      2.233     315578   4985.461     535736  0.000e+00
    21.0348   2.670931      2.305     315582   4994.453     535804  0.000e+00
    21.0346   2.678696      2.368     315585   4999.691     535863  0.000e+00
    21.0351   2.674028      2.409     315579   4996.543     535902  0.000e+00
    21.0349   2.715690      2.446     315581   5024.570     535936  0.000e+00
    21.0351   2.748348      2.470     315579   5046.430     535959  0.000e+00
    21.0358   2.777650      2.467     315570   5065.961     535956  0.000e+00
    21.0368   2.795610      2.431     315558   5077.895     535922  0.000e+00
    21.0385   2.848574      2.347     315538   5112.922     535843  0.000e+00
    21.0403   3.052469      2.233     315516   5245.547     535736  0.000e+00
    21.0402   3.389832      2.090     315517   5457.785     535602  0.000e+00
    21.0376   3.520636      1.928     315548   5537.844     535450  0.000e+00
    21.0325   3.460887      1.743     315610   5501.422     535276  0.000e+00
    21.0263   3.292774      1.576     315686   5397.598     535119  0.000e+00
    21.0193   3.274967      1.463     315770   5386.480     535013  0.000e+00
    21.0126   3.402549      1.408     315852   5465.621     534961  0.000e+00
    21.0078   3.150984      1.412     315910   5308.418     534965  0.000e+00
    21.0045   2.792662      1.467     315950   5075.938     535016  0.000e+00
    21.0034   2.624777      1.566     315964   4963.203     535109  0.000e+00
    21.0044   2.576740      1.671     315952   4930.465     535208  0.000e+00
    21.0053   2.564007      1.789     315940   4921.750     535319  0.000e+00
    21.0070   2.633253      1.915     315920   4968.957     535437  0.000e+00
    21.0089   2.861144      2.034     315897   5121.199     535549  0.000e+00
    21.0097   3.838432      2.123     315887   5727.586     535633  0.000e+00
    21.0099   4.329587      2.188     315885   6008.773     535694  0.000e+00
    21.0088   3.752325      2.226     315898   5676.816     535730  0.000e+00
    21.0088   3.871247      2.255     315898   5746.813     535757  0.000e+00
    21.0086   3.700567      2.270     315901   5646.074     535771  0.000e+00
    21.0078   3.407575      2.271     315910   5468.715     535772  0.000e+00
    21.0068   3.946497      2.273     315922   5790.656     535774  0.000e+00
    21.0071   4.228838      2.274     315919   5952.207     535775  0.000e+00
    21.0079   3.936218      2.281     315909   5784.688     535781  0.000e+00
    21.0090   4.532168      2.291     315895   6120.887     535791  0.000e+00
    21.0104   4.196867      2.299     315879   5934.141     535798  0.000e+00
    21.0121   4.544145      2.303     315858   6127.449     535802  0.000e+00
    21.0137   4.388913      2.299     315838   6041.828     535798  0.000e+00
    21.0161   4.421417      2.289     315809   6059.859     535789  0.000e+00
    21.0185   4.384893      2.253     315780   6039.594     535755  0.000e+00
    21.0213   4.409280      2.206     315746   6053.133     535711  0.000e+00
    21.0240   4.666581      2.157     315714   6194.121     535665  0.000e+00
    21.0251   4.692746      2.096     315700   6208.273     535607  0.000e+00
    21.0249   4.693043      2.030     315703   6208.434     535545  0.000e+00
    21.0234   4.705110      1.989     315721   6214.949     535507  0.000e+00
    21.0213   4.710461      1.975     315746   6217.836     535494  0.000e+00
    21.0196   4.703699      1.978     315767   6214.188     535497  0.000e+00
    21.0188   4.703547      1.985     315777   6214.105     535503  0.000e+00
    21.0184   4.711460      2.008     315782   6218.375     535525  0.000e+00
    21.0179   4.711511      2.049     315788   6218.402     535563  0.000e+00
    21.0169   4.711388      2.105     315800   6218.336     535616  0.000e+00
    21.0163   4.711902      2.165     315807   6218.613     535672  0.000e+00
    21.0153   4.712511      2.207     315819   6218.941     535712  0.000e+00
    21.0145   4.712590      2.235     315829   6218.984     535738  0.000e+00
    21.0132   4.712656      2.245     315844   6219.020     535747  0.000e+00
    21.0114   4.712619      2.240     315866   6219.000     535743  0.000e+00
    21.0094   4.712561      2.224     315891   6218.969     535728  0.000e+00
    21.0080   4.712525      2.190     315908   6218.949     535696  0.000e+00
    21.0067   4.712366      2.124     315923   6218.863     535634  0.000e+00
    21.0058   4.711924      2.037     315934   6218.625     535552  0.000e+00
    21.0058   4.711482      1.938     315934   6218.387     535459  0.000e+00
    21.0067   4.711149      1.832     315923   6218.207     535359  0.000e+00
    21.0079   4.710852      1.720     315909   6218.047     535254  0.000e+00
    21.0084   4.710765      1.611     315903   6218.000     535152  0.000e+00
    21.0074   4.710779      1.513     315915   6218.008     535060  0.000e+00
    21.0053   4.711018      1.433     315940   6218.137     534984  0.000e+00
    21.0026   4.711265      1.409     315973   6218.270     534962  0.000e+00
    21.0000   4.711402      1.483     316005   6218.344     535031  0.000e+00
    20.9974   4.712156      1.628     316036   6218.750     535168  0.000e+00
    20.9951   4.713641      1.782     316065   6219.551     535312  0.000e+00
    20.9938   4.714329      2.072     316080   6219.922     535585  0.000e+00
    20.9937   4.714720      2.283     316081   6220.133     535783  0.000e+00
    20.9941   4.715054      2.474     316076   6220.313     535963  0.000e+00
    20.9946   4.715162      2.616     316070   6220.371     536096  0.000e+00
    20.9952   4.715431      2.721     316063   6220.516     536195  0.000e+00
    20.9965   4.715300      2.779     316047   6220.445     536249  0.000e+00
    20.9974   4.714887      2.788     316036   6220.223     536258  0.000e+00
    20.9988   4.715054      2.757     316020   6220.313     536229  0.000e+00
    20.9991   4.715199      2.691     316016   6220.391     536167  0.000e+00
    20.9990   4.714829      2.623     316017   6220.191     536103  0.000e+00
    20.9990   4.714221      2.554     316017   6219.863     536038  0.000e+00
    20.9993   4.713554      2.476     316013   6219.504     535965  0.000e+00
    20.9998   4.712895      2.363     316007   6219.148     535858  0.000e+00
    20.9998   4.712120      2.230     316007   6218.730     535733  0.000e+00
    21.0014   4.711439      2.097     315988   6218.363     535608  0.000e+00
    21.0039   4.710823      1.968     315957   6218.031     535487  0.000e+00
    21.0052   4.710432      1.839     315942   6217.820     535366  0.000e+00
    21.0035   4.710294      1.707     315962   6217.746     535242  0.000e+00
    21.0003   4.710149      1.571     316001   6217.668     535114  0.000e+00
    20.9974   4.710135      1.457     316037   6217.660     535007  0.000e+00
    20.9953   4.710215      1.395     316062   6217.703     534949  0.000e+00
    20.9937   4.710439      1.407     316082   6217.824     534960  0.000e+00
    20.9918   4.711069      1.503     316105   6218.164     535050  0.000e+00
    20.9900   4.711902      1.646     316126   6218.613     535185  0.000e+00
    20.9901   4.711482      1.800     316125   6218.387     535329  0.000e+00
    20.9917   4.709513      1.961     316106   6217.324     535481  0.000e+00
    20.9928   4.708969      2.122     316092   6217.031     535632  0.000e+00
    20.9935   4.709107      2.220     316084   6217.105     535724  0.000e+00
    20.9941   4.709194      2.280     316076   6217.152     535780  0.000e+00
    20.9946   4.709165      2.299     316071   6217.137     535798  0.000e+00
    20.9946   4.709390      2.277     316070   6217.258     535778  0.000e+00
    20.9943   4.709694      2.232     316074   6217.422     535735  0.000e+00
    20.9937   4.709882      2.168     316081   6217.523     535675  0.000e+00
    20.9930   4.709802      2.088     316090   6217.480     535600  0.000e+00
    20.9923   4.710324      2.014     316098   6217.762     535530  0.000e+00
    20.9919   4.710809      1.935     316103   6218.023     535456  0.000e+00
    20.9921   4.711069      1.861     316101   6218.164     535387  0.000e+00
    20.9922   4.711098      1.805     316100   6218.180     535334  0.000e+00
    20.9924   4.711098      1.777     316097   6218.180     535308  0.000e+00
    20.9925   4.710888      1.801     316096   6218.066     535330  0.000e+00
    20.9917   4.710628      1.886     316106   6217.926     535410  0.000e+00
    20.9907   4.710461      2.039     316118   6217.836     535554  0.000e+00
    20.9899   4.710280      2.198     316127   6217.738     535703  0.000e+00
    20.9895   4.710078      2.366     316132   6217.629     535861  0.000e+00
    20.9890   4.709745      2.532     316138   6217.449     536017  0.000e+00
    20.9887   4.709303      2.652     316142   6217.211     536130  0.000e+00
    20.9887   4.708984      2.722     316142   6217.039     536196  0.000e+00
    20.9888   4.708832      2.741     316141   6216.957     536214  0.000e+00
    20.9889   4.709107      2.716     316140   6217.105     536190  0.000e+00
    20.9888   4.709752      2.642     316141   6217.453     536121  0.000e+00
    20.9886   4.710411      2.526     316143   6217.809     536012  0.000e+00
    20.9883   4.711236      2.372     316147   6218.254     535867  0.000e+00
    20.9882   4.711482      2.193     316148   6218.387     535699  0.000e+00
    20.9886   4.711280      2.005     316144   6218.277     535522  0.000e+00
    20.9909   4.710990      1.821     316116   6218.121     535349  0.000e+00
    20.9940   4.710736      1.666     316078   6217.984     535203  0.000e+00
    20.9969   4.710490      1.541     316043   6217.852     535086  0.000e+00
    20.9984   4.710294      1.447     316024   6217.746     534998  0.000e+00
    20.9994   4.710106      1.389     316012   6217.645     534943  0.000e+00
    20.9996   4.710077      1.360     316010   6217.629     534916  0.000e+00
    20.9991   4.710171      1.367     316016   6217.680     534922  0.000e+00
    20.9974   4.710352      1.413     316037   6217.777     534966  0.000e+00
    20.9951   4.710490      1.495     316064   6217.852     535043  0.000e+00
    20.9932   4.709802      1.605     316088   6217.480     535146  0.000e+00
    20.9925   4.708998      1.769     316096   6217.047     535300  0.000e+00
    20.9931   4.708506      2.009     316089   6216.781     535526  0.000e+00
    20.9939   4.708311      2.180     316079   6216.676     535686  0.000e+00
    20.9946   4.708274      2.305     316070   6216.656     535804  0.000e+00
    20.9950   4.708253      2.408     316066   6216.645     535901  0.000e+00
    20.9948   4.708115      2.481     316068   6216.570     535969  0.000e+00
    20.9946   4.707876      2.521     316071   6216.441     536007  0.000e+00
    20.9946   4.707760      2.531     316070   6216.379     536016  0.000e+00
    20.9942   4.708036      2.505     316075   6216.527     535992  0.000e+00
    20.9941   4.708477      2.467     316077   6216.766     535956  0.000e+00
    20.9934   4.708586      2.425     316085   6216.824     535917  0.000e+00
    20.9931   4.708694      2.388     316089   6216.883     535882  0.000e+00
    20.9927   4.708803      2.351     316094   6216.941     535847  0.000e+00
    20.9926   4.708854      2.299     316095   6216.969     535798  0.000e+00
    20.9923   4.709056      2.247     316099   6217.078     535749  0.000e+00
    20.9917   4.709390      2.198     316106   6217.258     535703  0.000e+00
    20.9919   4.709715      2.153     316103   6217.434     535661  0.000e+00
    20.9918   4.710150      2.107     316105   6217.668     535618  0.000e+00
    20.9919   4.710382      2.068     316103   6217.793     535581  0.000e+00
    20.9921   4.710461      2.033     316101   6217.836     535548  0.000e+00
    20.9923   4.710541      2.008     316099   6217.879     535525  0.000e+00
    20.9923   4.710519      1.969     316098   6217.867     535488  0.000e+00
    20.9932   4.710410      1.923     316088   6217.809     535445  0.000e+00
    20.9943   4.710323      1.874     316074   6217.762     535399  0.000e+00
    20.9955   4.710200      1.821     316059   6217.695     535349  0.000e+00
    20.9968   4.710077      1.778     316044   6217.629     535309  0.000e+00
    20.9979   4.710048      1.753     316031   6217.613     535285  0.000e+00
    20.9988   4.710070      1.760     316019   6217.625     535292  0.000e+00
    20.9992   4.710186      1.778     316015   6217.688     535309  0.000e+00
    20.9988   4.710273      1.810     316019   6217.734     535339  0.000e+00
    20.9985   4.710323      1.854     316023   6217.762     535380  0.000e+00
    20.9976   4.710410      1.891     316034   6217.809     535415  0.000e+00
    20.9968   4.710490      1.916     316044   6217.852     535438  0.000e+00
    20.9961   4.710577      1.931     316052   6217.898     535452  0.000e+00
    20.9951   4.710620      1.927     316064   6217.922     535449  0.000e+00
    20.9942   4.710686      1.908     316075   6217.957     535431  0.000e+00
    20.9934   4.710657      1.884     316085   6217.941     535408  0.000e+00
    20.9928   4.710490      1.862     316092   6217.852     535388  0.000e+00
    20.9928   4.710302      1.850     316092   6217.750     535376  0.000e+00
    20.9931   4.710135      1.858     316089   6217.660     535384  0.000e+00
    20.9939   4.710077      1.902     316079   6217.629     535425  0.000e+00
    20.9945   4.710092      1.990     316072   6217.637     535508  0.000e+00
    20.9945   4.710186      2.096     316072   6217.688     535607  0.000e+00
    20.9941   4.710295      2.197     316077   6217.746     535702  0.000e+00
    20.9935   4.710353      2.285     316084   6217.777     535785  0.000e+00
    20.9924   4.710440      2.357     316097   6217.824     535853  0.000e+00
    20.9912   4.710628      2.406     316112   6217.926     535899  0.000e+00
    20.9897   4.710715      2.430     316130   6217.973     535921  0.000e+00
    20.9886   4.710729      2.431     316143   6217.980     535922  0.000e+00
    20.9878   4.710657      2.411     316153   6217.941     535903  0.000e+00
    20.9875   4.710628      2.372     316157   6217.926     535867  0.000e+00
    20.9872   4.710570      2.333     316160   6217.895     535830  0.000e+00
    20.9874   4.710519      2.295     316158   6217.867     535794  0.000e+00
    20.9875   4.710432      2.262     316157   6217.820     535763  0.000e+00
    20.9874   4.710382      2.220     316158   6217.793     535724  0.000e+00
    20.9877   4.710331      2.149     316154   6217.766     535657  0.000e+00
    20.9877   4.710186      2.055     316154   6217.688     535569  0.000e+00
    20.9881   4.709940      1.956     316149   6217.555     535476  0.000e+00
    20.9887   4.709701      1.854     316142   6217.426     535380  0.000e+00
    20.9898   4.709411      1.744     316129   6217.270     535277  0.000e+00
    20.9904   4.709252      1.623     316122   6217.184     535163  0.000e+00
    20.9911   4.709165      1.507     316113   6217.137     535054  0.000e+00
    20.9918   4.709512      1.467     316105   6217.324     535016  0.000e+00
    20.9914   4.709882      1.536     316109   6217.523     535081  0.000e+00
    20.9904   4.710106      1.674     316122   6217.645     535211  0.000e+00
    20.9892   4.710331      1.826     316136   6217.766     535354  0.000e+00
    20.9882   4.710490      1.985     316148   6217.852     535503  0.000e+00
    20.9876   4.710215      2.140     316156   6217.703     535649  0.000e+00
    20.9869   4.709527      2.282     316164   6217.332     535782  0.000e+00
    20.9859   4.709303      2.379     316176   6217.211     535873  0.000e+00
    20.9853   4.709361      2.397     316184   6217.242     535890  0.000e+00
    20.9848   4.709274      2.343     316189   6217.195     535840  0.000e+00
    20.9842   4.709223      2.223     316197   6217.168     535727  0.000e+00
    20.9839   4.709252      2.055     316200   6217.184     535569  0.000e+00
    20.9837   4.709549      1.856     316203   6217.344     535382  0.000e+00
    20.9833   4.709940      1.648     316208   6217.555     535186  0.000e+00
    20.9831   4.709911      1.509     316210   6217.539     535056  0.000e+00
    20.9832   4.709802      1.462     316209   6217.480     535012  0.000e+00
    20.9833   4.709693      1.501     316208   6217.422     535048  0.000e+00
    20.9833   4.709563      1.603     316208   6217.352     535144  0.000e+00
    20.9835   4.709274      1.727     316205   6217.195     535261  0.000e+00
    20.9827   4.708890      1.862     316215   6216.988     535388  0.000e+00
    20.9813   4.708282      2.019     316232   6216.660     535535  0.000e+00
    20.9802   4.707847      2.167     316246   6216.426     535674  0.000e+00
    20.9800   4.707674      2.300     316248   6216.332     535799  0.000e+00
    20.9802   4.707457      2.403     316246   6216.215     535896  0.000e+00
    20.9801   4.707239      2.479     316247   6216.098     535967  0.000e+00
    20.9799   4.707203      2.521     316249   6216.078     536007  0.000e+00
    20.9799   4.707261      2.528     316249   6216.109     536013  0.000e+00
    20.9796   4.707428      2.491     316253   6216.199     535979  0.000e+00
    20.9793   4.707638      2.409     316257   6216.313     535902  0.000e+00
    20.9788   4.707811      2.297     316262   6216.406     535796  0.000e+00
    20.9783   4.707978      2.171     316268   6216.496     535678  0.000e+00
    20.9783   4.708115      2.047     316269   6216.570     535561  0.000e+00
    20.9779   4.708217      1.935     316273   6216.625     535456  0.000e+00
    20.9779   4.708419      1.836     316274   6216.734     535363  0.000e+00
    20.9778   4.708644      1.766     316275   6216.855     535297  0.000e+00
    20.9774   4.708694      1.732     316279   6216.883     535265  0.000e+00
    20.9774   4.708586      1.731     316280   6216.824     535264  0.000e+00
    20.9770   4.708144      1.750     316285   6216.586     535282  0.000e+00
    20.9764   4.707645      1.788     316292   6216.316     535318  0.000e+00
    20.9759   4.707456      1.852     316298   6216.215     535378  0.000e+00
    20.9751   4.707536      1.920     316307   6216.258     535442  0.000e+00
    20.9746   4.707782      1.983     316313   6216.391     535501  0.000e+00
    20.9742   4.708137      2.033     316318   6216.582     535548  0.000e+00
    20.9738   4.708224      2.058     316323   6216.629     535572  0.000e+00
    20.9738   4.708086      2.069     316323   6216.555     535582  0.000e+00
    20.9737   4.707761      2.076     316325   6216.379     535589  0.000e+00
    20.9733   4.707717      2.084     316329   6216.355     535596  0.000e+00
    20.9730   4.707869      2.090     316333   6216.438     535602  0.000e+00
    20.9725   4.708253      2.099     316339   6216.645     535610  0.000e+00
    20.9725   4.708724      2.109     316339   6216.898     535620  0.000e+00
    20.9723   4.708970      2.111     316341   6217.031     535622  0.000e+00
    20.9728   4.709086      2.110     316336   6217.094     535621  0.000e+00
    20.9732   4.709086      2.101     316330   6217.094     535612  0.000e+00
    20.9734   4.709013      2.081     316328   6217.055     535593  0.000e+00
    20.9737   4.709057      2.054     316324   6217.078     535568  0.000e+00
    20.9736   4.709165      2.022     316326   6217.137     535538  0.000e+00
    20.9735   4.709252      1.987     316327   6217.184     535505  0.000e+00
    20.9736   4.709223      1.955     316326   6217.168     535475  0.000e+00
    20.9740   4.709223      1.935     316321   6217.168     535456  0.000e+00
    20.9743   4.709274      1.934     316317   6217.195     535455  0.000e+00
    20.9751   4.709223      1.945     316308   6217.168     535466  0.000e+00
    20.9758   4.709194      1.965     316299   6217.152     535484  0.000e+00
    20.9762   4.709136      2.000     316294   6217.121     535517  0.000e+00
    20.9770   4.709115      2.041     316284   6217.109     535556  0.000e+00
    20.9778   4.709107      2.085     316275   6217.105     535597  0.000e+00
    20.9779   4.709086      2.127     316273   6217.094     535637  0.000e+00
    20.9772   4.708970      2.144     316282   6217.031     535653  0.000e+00
    20.9767   4.708456      2.128     316288   6216.754     535638  0.000e+00
    20.9758   4.708007      2.085     316299   6216.512     535597  0.000e+00
    20.9752   4.707811      2.039     316306   6216.406     535554  0.000e+00
    20.9748   4.707688      1.995     316311   6216.340     535513  0.000e+00
    20.9743   4.707761      1.967     316317   6216.379     535486  0.000e+00
    20.9739   4.708086      1.938     316322   6216.555     535459  0.000e+00
    20.9733   4.708557      1.914     316329   6216.809     535436  0.000e+00
    20.9732   4.708803      1.904     316330   6216.941     535427  0.000e+00
    20.9737   4.708832      1.914     316324   6216.957     535436  0.000e+00
    20.9736   4.708803      1.938     316326   6216.941     535459  0.000e+00
    20.9734   4.708405      1.961     316328   6216.727     535481  0.000e+00
    20.9733   4.708065      1.995     316329   6216.543     535513  0.000e+00
    20.9728   4.707782      2.025     316335   6216.391     535541  0.000e+00
    20.9723   4.707761      2.050     316341   6216.379     535564  0.000e+00
    20.9719   4.707768      2.082     316347   6216.383     535594  0.000e+00
    20.9714   4.707949      2.109     316353   6216.480     535620  0.000e+00
    20.9711   4.707978      2.160     316356   6216.496     535668  0.000e+00
    20.9711   4.707956      2.215     316356   6216.484     535719  0.000e+00
    20.9706   4.707319      2.271     316362   6216.141     535772  0.000e+00
    20.9703   4.706740      2.316     316366   6215.828     535814  0.000e+00
    20.9699   4.705965      2.339     316371   6215.410     535836  0.000e+00
    20.9693   4.705263      2.342     316378   6215.031     535839  0.000e+00
    20.9686   4.705024      2.340     316387   6214.902     535837  0.000e+00
    20.9682   4.705053      2.359     316391   6214.918     535855  0.000e+00
    20.9678   4.705524      2.367     316396   6215.172     535862  0.000e+00
    20.9676   4.705871      2.315     316399   6215.359     535813  0.000e+00
    20.9673   4.706899      2.358     316402   6215.914     535854  0.000e+00
    20.9667   4.707182      2.531     316410   6216.066     536016  0.000e+00
    20.9661   4.707797      2.706     316417   6216.398     536181  0.000e+00
    20.9656   4.707182      2.895     316423   6216.066     536358  0.000e+00
    20.9654   4.706241      3.072     316425   6215.559     536525  0.000e+00
    20.9650   4.706241      3.322     316430   6215.559     536760  0.000e+00
    20.9645   4.705821      3.587     316436   6215.332     537009  0.000e+00
    20.9641   4.703729      3.864     316441   6214.203     537269  0.000e+00
    20.9635   4.700256      4.156     316448   6212.328     537543  0.000e+00
    20.9634   4.695308      4.521     316450   6209.656     537886  0.000e+00
    20.9640   4.691816      4.937     316442   6207.770     538277  0.000e+00
    20.9626   4.693024      5.354     316459   6208.422     538669  0.000e+00
    20.9584   4.694181      5.754     316511   6209.047     539045  0.000e+00
    20.9546   4.693017      6.208     316557   6208.418     539472  0.000e+00
    20.9515   4.692142      6.638     316595   6207.945     539876  0.000e+00
    20.9494   4.689778      7.036     316620   6206.668     540250  0.000e+00
    20.9483   4.687531      7.405     316633   6205.453     540596  0.000e+00
    20.9490   4.683275      7.722     316625   6203.152     540894  0.000e+00
    20.9505   4.679996      7.980     316607   6201.379     541137  0.000e+00
    20.9516   4.677252      8.197     316593   6199.895     541341  0.000e+00
    20.9525   4.673115      8.376     316582   6197.656     541509  0.000e+00
    20.9541   4.667790      8.528     316563   6194.773     541652  0.000e+00
    20.9568   4.663628      8.663     316530   6192.520     541779  0.000e+00
    20.9595   4.661623      8.779     316497   6191.434     541888  0.000e+00
    20.9623   4.658458      8.879     316463   6189.719     541982  0.000e+00
    20.9647   4.655057      8.977     316434   6187.875     542074  0.000e+00
    20.9672   4.652312      9.095     316403   6186.387     542185  0.000e+00
    20.9698   4.648883      9.242     316372   6184.527     542323  0.000e+00
    20.9718   4.646600      9.415     316348   6183.289     542485  0.000e+00
    20.9733   4.643728      9.605     316329   6181.730     542664  0.000e+00
    20.9751   4.638136      9.818     316308   6178.695     542864  0.000e+00
    20.9765   4.632209     10.047     316291   6175.477     543079  0.000e+00
    20.9779   4.627989     10.305     316273   6173.184     543322  0.000e+00
    20.9793   4.623346     10.598     316256   6170.660     543597  0.000e+00
    20.9810   4.619136     10.917     316236   6168.371     543897  0.000e+00
    20.9829   4.615826     11.247     316213   6166.570     544207  0.000e+00
    20.9851   4.613349     11.588     316186   6165.223     544527  0.000e+00
    20.9872   4.611009     11.926     316161   6163.949     544845  0.000e+00
    20.9893   4.608741     12.265     316135   6162.715     545163  0.000e+00
    20.9920   4.607967     12.615     316102   6162.293     545492  0.000e+00
    20.9949   4.607328     12.944     316067   6161.945     545801  0.000e+00
    20.9985   4.606919     13.256     316023   6161.723     546095  0.000e+00
    21.0027   4.607271     13.546     315972   6161.914     546367  0.000e+00
    21.0067   4.607429     13.816     315923   6162.000     546621  0.000e+00
    21.0104   4.607752     14.051     315878   6162.176     546842  0.000e+00
    21.0147   4.607996     14.275     315826   6162.309     547052  0.000e+00
    21.0193   4.608749     14.481     315770   6162.719     547246  0.000e+00
    21.0244   4.609180     14.663     315709   6162.953     547417  0.000e+00
    21.0293   4.609553     14.839     315649   6163.156     547582  0.000e+00
    21.0327   4.610256     15.017     315608   6163.539     547749  0.000e+00
    21.0356   4.610658     15.192     315573   6163.758     547914  0.000e+00
    21.0383   4.611211     15.370     315540   6164.059     548081  0.000e+00
    21.0424   4.612029     15.556     315490   6164.504     548256  0.000e+00
    21.0486   4.612567     15.751     315415   6164.797     548439  0.000e+00
    21.0541   4.613185     15.953     315348   6165.133     548629  0.000e+00
    21.0592   4.614477     16.171     315287   6165.836     548834  0.000e+00
    21.0622   4.616042     16.408     315250   6166.688     549056  0.000e+00
    21.0647   4.617069     16.644     315220   6167.246     549278  0.000e+00
    21.0695   4.618039     16.903     315162   6167.773     549521  0.000e+00
    21.0765   4.619166     17.177     315077   6168.387     549779  0.000e+00
    21.0828   4.620567     17.458     315001   6169.148     550043  0.000e+00
    21.0913   4.623211     17.757     314898   6170.586     550324  0.000e+00
    21.1007   4.626165     18.068     314784   6172.191     550616  0.000e+00
    21.1098   4.630427     18.395     314674   6174.508     550923  0.000e+00
    21.1193   4.632728     18.735     314558   6175.758     551243  0.000e+00
    21.1284   4.634699     19.080     314449   6176.828     551567  0.000e+00
    21.1360   4.636677     19.418     314356   6177.902     551885  0.000e+00
    21.1453   4.638764     19.757     314244   6179.035     552203  0.000e+00
    21.1534   4.642290     20.062     314146   6180.949     552490  0.000e+00
    21.1614   4.645112     20.352     314049   6182.480     552762  0.000e+00
    21.1685   4.646213     20.592     313964   6183.078     552988  0.000e+00
    21.1742   4.647308     20.800     313895   6183.672     553183  0.000e+00
    21.1809   4.649209     20.963     313814   6184.703     553336  0.000e+00
    21.1865   4.651932     21.095     313747   6186.180     553460  0.000e+00
    21.1926   4.654216     21.197     313673   6187.418     553556  0.000e+00
    21.2012   4.656392     21.281     313569   6188.598     553635  0.000e+00
    21.2109   4.658986     21.376     313452   6190.004     553724  0.000e+00
    21.2208   4.661762     21.472     313333   6191.508     553815  0.000e+00
    21.2296   4.664538     21.598     313227   6193.012     553933  0.000e+00
    21.2406   4.666204     21.753     313094   6193.914     554079  0.000e+00
    21.2524   4.667871     21.947     312952   6194.816     554261  0.000e+00
    21.2611   4.668693     22.189     312847   6195.262     554488  0.000e+00
    21.2686   4.669977     22.469     312757   6195.957     554751  0.000e+00
    21.2765   4.673831     22.796     312662   6198.043     555059  0.000e+00
    21.2864   4.677470     23.159     312542   6200.012     555400  0.000e+00
    21.2947   4.679550     23.551     312443   6201.137     555768  0.000e+00
    21.3002   4.681810     23.962     312376   6202.359     556154  0.000e+00
    21.3055   4.683963     24.359     312313   6203.523     556527  0.000e+00
    21.3113   4.685228     24.761     312243   6204.207     556905  0.000e+00
    21.3165   4.686131     25.141     312180   6204.695     557262  0.000e+00
    21.3217   4.687873     25.494     312118   6205.637     557594  0.000e+00
    21.3273   4.689897     25.784     312051   6206.730     557866  0.000e+00
    21.3368   4.690858     26.054     311936   6207.250     558120  0.000e+00
    21.3462   4.691596     26.281     311824   6207.648     558333  0.000e+00
    21.3526   4.692282     26.454     311747   6208.020     558496  0.000e+00
    21.3579   4.693136     26.591     311683   6208.480     558624  0.000e+00
    21.3644   4.696050     26.701     311605   6210.055     558728  0.000e+00
    21.3722   4.701143     26.801     311511   6212.805     558822  0.000e+00
    21.3824   4.704501     26.897     311389   6214.617     558912  0.000e+00
    21.3923   4.706520     27.014     311270   6215.707     559022  0.000e+00
    21.3991   4.708345     27.149     311189   6216.691     559149  0.000e+00
    21.4054   4.709807     27.327     311114   6217.480     559316  0.000e+00
    21.4120   4.711154     27.547     311034   6218.207     559523  0.000e+00
    21.4202   4.711821     27.791     310936   6218.566     559752  0.000e+00
    21.4286   4.713588     28.064     310836   6219.520     560008  0.000e+00
    21.4387   4.714805     28.357     310715   6220.176     560284  0.000e+00
    21.4482   4.716964     28.656     310601   6221.340     560565  0.000e+00
    21.4581   4.719870     28.964     310483   6222.906     560854  0.000e+00
    21.4664   4.721074     29.280     310383   6223.555     561151  0.000e+00
    21.4719   4.723140     29.586     310317   6224.668     561438  0.000e+00
    21.4763   4.725025     29.886     310265   6225.684     561720  0.000e+00
    21.4815   4.729326     30.189     310203   6228.000     562005  0.000e+00
    21.4867   4.735712     30.470     310141   6231.438     562269  0.000e+00
    21.4912   4.740968     30.744     310087   6234.266     562526  0.000e+00
    21.4973   4.744352     31.010     310014   6236.086     562776  0.000e+00
    21.5071   4.743147     31.264     309897   6235.438     563015  0.000e+00
    21.5156   4.736183     31.506     309795   6231.691     563242  0.000e+00
    21.5174   4.743154     31.737     309774   6235.441     563459  0.000e+00
    21.5198   4.749279     31.974     309745   6238.734     563682  0.000e+00
    21.5279   4.752288     32.206     309649   6240.352     563900  0.000e+00
    21.5371   4.752251     32.429     309539   6240.332     564109  0.000e+00
    21.5436   4.750536     32.655     309461   6239.410     564322  0.000e+00
    21.5471   4.742805     32.861     309419   6235.254     564515  0.000e+00
    21.5470   4.750914     33.046     309421   6239.613     564689  0.000e+00
    21.5511   4.756788     33.216     309372   6242.770     564849  0.000e+00
    21.5612   4.760490     33.369     309251   6244.758     564993  0.000e+00
    21.5703   4.763618     33.512     309143   6246.438     565127  0.000e+00
    21.5770   4.769223     33.653     309063   6249.445     565259  0.000e+00
    21.5861   4.778756     33.791     308955   6254.559     565389  0.000e+00
    21.5966   4.787860     33.925     308830   6259.438     565515  0.000e+00
    21.6084   4.796789     34.077     308689   6264.219     565658  0.000e+00
    21.6226   4.803592     34.250     308520   6267.859     565820  0.000e+00
    21.6376   4.809267     34.439     308342   6270.895     565998  0.000e+00
    21.6554   4.817599     34.661     308130   6275.348     566206  0.000e+00
    21.6737   4.832926     34.909     307913   6283.531     566439  0.000e+00
    21.6903   4.848479     35.182     307715   6291.824     566696  0.000e+00
    21.7074   4.861939     35.481     307512   6298.992     566977  0.000e+00
    21.7257   4.873858     35.797     307295   6305.332     567274  0.000e+00
    21.7443   4.885494     36.120     307075   6311.516     567577  0.000e+00
    21.7618   4.898961     36.422     306868   6318.664     567861  0.000e+00
    21.7808   4.911913     36.722     306643   6325.531     568143  0.000e+00
    21.7988   4.922312     37.011     306430   6331.039     568414  0.000e+00
    21.8160   4.938016     37.286     306227   6339.348     568673  0.000e+00
    21.8334   4.950139     37.530     306021   6345.754     568902  0.000e+00
    21.8519   4.966243     37.752     305803   6354.254     569110  0.000e+00
    21.8687   4.978878     37.968     305604   6360.914     569313  0.000e+00
    21.8846   4.991325     38.178     305416   6367.469     569511  0.000e+00
    21.9006   5.001959     38.374     305228   6373.063     569695  0.000e+00
    21.9174   5.016357     38.572     305030   6380.629     569881  0.000e+00
    21.9355   5.030557     38.757     304817   6388.082     570055  0.000e+00
    21.9526   5.039974     38.937     304616   6393.020     570224  0.000e+00
    21.9691   5.049727     39.100     304421   6398.129     570377  0.000e+00
    21.9848   5.056934     39.250     304237   6401.902     570518  0.000e+00
    21.9988   5.061988     39.392     304072   6404.547     570651  0.000e+00
    22.0111   5.064101     39.529     303928   6405.652     570780  0.000e+00
    22.0212   5.062824     39.673     303809   6404.984     570915  0.000e+00
    22.0281   5.058927     39.832     303728   6402.945     571065  0.000e+00
    22.0330   5.053993     40.007     303671   6400.363     571229  0.000e+00
    22.0342   5.047996     40.220     303657   6397.223     571429  0.000e+00
    22.0324   5.041092     40.471     303678   6393.605     571665  0.000e+00
    22.0280   5.032992     40.757     303729   6389.359     571934  0.000e+00
    22.0210   5.023879     41.092     303812   6384.578     572248  0.000e+00
    22.0103   5.014416     41.474     303937   6379.609     572607  0.000e+00
    21.9971   5.004180     41.855     304092   6374.230     572965  0.000e+00
    21.9820   4.993820     42.253     304270   6368.781     573339  0.000e+00
    21.9658   4.983521     42.645     304460   6363.359     573707  0.000e+00
    21.9486   4.973445     42.999     304663   6358.051     574040  0.000e+00
    21.9303   4.964282     43.307     304878   6353.219     574329  0.000e+00
    21.9114   4.954386     43.587     305101   6347.996     574592  0.000e+00
    21.8919   4.944580     43.817     305330   6342.816     574808  0.000e+00
    21.8729   4.935780     43.995     305555   6338.164     574976  0.000e+00
    21.8547   4.926808     44.117     305769   6333.418     575090  0.000e+00
    21.8364   4.917424     44.197     305985   6328.449     575165  0.000e+00
    21.8184   4.908467     44.246     306198   6323.703     575211  0.000e+00
    21.7997   4.899605     44.265     306419   6319.004     575229  0.000e+00
    21.7816   4.891221     44.288     306633   6314.555     575251  0.000e+00
    21.7630   4.882417     44.322     306853   6309.879     575283  0.000e+00
    21.7443   4.873722     44.388     307075   6305.258     575345  0.000e+00
    21.7246   4.864887     44.494     307308   6300.559     575444  0.000e+00
    21.7058   4.857335     44.642     307532   6296.539     575583  0.000e+00
    21.6876   4.850485     44.844     307748   6292.891     575773  0.000e+00
    21.6709   4.844973     45.078     307946   6289.953     575993  0.000e+00
    21.6555   4.840328     45.339     308129   6287.477     576238  0.000e+00
    21.6419   4.836424     45.605     308290   6285.395     576488  0.000e+00
    21.6303   4.833283     45.882     308429   6283.719     576748  0.000e+00
    21.6200   4.831226     46.149     308551   6282.621     576999  0.000e+00
    21.6116   4.829682     46.405     308651   6281.797     577240  0.000e+00
    21.6053   4.828951     46.652     308726   6281.406     577472  0.000e+00
    21.6003   4.828790     46.875     308786   6281.320     577681  0.000e+00
    21.5964   4.829295     47.095     308832   6281.590     577888  0.000e+00
    21.5941   4.830312     47.314     308859   6282.133     578094  0.000e+00
    21.5922   4.831857     47.533     308882   6282.957     578299  0.000e+00
    21.5918   4.834324     47.772     308887   6284.273     578524  0.000e+00
    21.5921   4.837393     48.032     308883   6285.910     578768  0.000e+00
    21.5939   4.841012     48.319     308862   6287.840     579038  0.000e+00
    21.5966   4.844866     48.613     308829   6289.895     579314  0.000e+00
    21.6000   4.849088     48.906     308789   6292.145     579589  0.000e+00
    21.6043   4.853965     49.190     308738   6294.742     579856  0.000e+00
    21.6092   4.859548     49.448     308680   6297.715     580098  0.000e+00
    21.6148   4.865552     49.687     308613   6300.910     580323  0.000e+00
    21.6213   4.872793     49.897     308535   6304.762     580520  0.000e+00
    21.6287   4.879495     50.083     308448   6308.324     580695  0.000e+00
    21.6369   4.886812     50.246     308350   6312.211     580848  0.000e+00
    21.6459   4.894089     50.389     308243   6316.074     580982  0.000e+00
    21.6551   4.901893     50.527     308133   6320.215     581112  0.000e+00
    21.6648   4.909968     50.671     308018   6324.496     581247  0.000e+00
    21.6759   4.918823     50.836     307887   6329.188     581402  0.000e+00
    21.6874   4.927021     51.035     307750   6333.527     581589  0.000e+00
    21.6991   4.934501     51.271     307611   6337.484     581811  0.000e+00
    21.7105   4.941246     51.531     307476   6341.051     582055  0.000e+00
    21.7217   4.948210     51.825     307343   6344.730     582331  0.000e+00
    21.7325   4.954186     52.155     307215   6347.887     582641  0.000e+00
    21.7433   4.959796     52.528     307087   6350.848     582992  0.000e+00
    21.7533   4.964586     52.895     306968   6353.375     583336  0.000e+00
    21.7633   4.968289     53.254     306850   6355.328     583674  0.000e+00
    21.7723   4.971475     53.577     306743   6357.008     583977  0.000e+00
    21.7808   4.974417     53.881     306643   6358.559     584263  0.000e+00
    21.7886   4.976633     54.149     306550   6359.727     584514  0.000e+00
    21.7963   4.978375     54.363     306460   6360.645     584715  0.000e+00
    21.8028   4.979569     54.543     306382   6361.273     584884  0.000e+00
    21.8089   4.980355     54.667     306310   6361.688     585001  0.000e+00
    21.8144   4.980644     54.742     306246   6361.840     585071  0.000e+00
    21.8193   4.980473     54.781     306188   6361.750     585108  0.000e+00
    21.8237   4.980214     54.788     306136   6361.613     585115  0.000e+00
    21.8278   4.979324     54.787     306087   6361.145     585114  0.000e+00
    21.8314   4.977923     54.793     306045   6360.406     585119  0.000e+00
    21.8342   4.976114     54.817     306011   6359.453     585142  0.000e+00
    21.8369   4.974276     54.873     305980   6358.484     585194  0.000e+00
    21.8389   4.972097     54.961     305956   6357.336     585277  0.000e+00
    21.8402   4.969356     55.088     305940   6355.891     585396  0.000e+00
    21.8412   4.966289     55.249     305929   6354.273     585548  0.000e+00
    21.8419   4.963009     55.455     305921   6352.543     585741  0.000e+00
    21.8417   4.959344     55.685     305923   6350.609     585957  0.000e+00
    21.8410   4.955548     55.938     305931   6348.605     586195  0.000e+00
    21.8399   4.951723     56.213     305944   6346.586     586453  0.000e+00
    21.8388   4.948868     56.497     305957   6345.078     586720  0.000e+00
    21.8371   4.946044     56.807     305977   6343.586     587011  0.000e+00
    21.8353   4.942880     57.126     305998   6341.914     587311  0.000e+00
    21.8336   4.940293     57.455     306019   6340.547     587620  0.000e+00
    21.8314   4.937811     57.802     306044   6339.234     587946  0.000e+00
    21.8292   4.935447     58.158     306070   6337.984     588280  0.000e+00
    21.8272   4.933350     58.523     306094   6336.875     588623  0.000e+00
    21.8254   4.931423     58.890     306116   6335.855     588968  0.000e+00
    21.8233   4.929939     59.255     306140   6335.070     589311  0.000e+00
    21.8216   4.928484     59.601     306160   6334.301     589636  0.000e+00
    21.8199   4.926617     59.919     306180   6333.313     589934  0.000e+00
    21.8176   4.924381     60.199     306208   6332.129     590197  0.000e+00
    21.8149   4.922500     60.456     306240   6331.133     590439  0.000e+00
    21.8123   4.921061     60.666     306270   6330.371     590636  0.000e+00
    21.8097   4.919667     60.832     306301   6329.633     590792  0.000e+00
    21.8071   4.918693     60.968     306332   6329.117     590920  0.000e+00
    21.8048   4.917948     61.083     306359   6328.723     591028  0.000e+00
    21.8030   4.917299     61.177     306380   6328.379     591116  0.000e+00
    21.8014   4.916931     61.270     306399   6328.184     591203  0.000e+00
    21.8003   4.917049     61.365     306412   6328.246     591293  0.000e+00
    21.7994   4.917019     61.473     306423   6328.230     591394  0.000e+00
    21.7983   4.917381     61.601     306436   6328.422     591514  0.000e+00
    21.7974   4.918074     61.757     306447   6328.789     591661  0.000e+00
    21.7963   4.919550     61.947     306459   6329.570     591839  0.000e+00
    21.7957   4.921984     62.168     306467   6330.859     592047  0.000e+00
    21.7952   4.924552     62.403     306473   6332.219     592268  0.000e+00
    21.7952   4.927313     62.658     306473   6333.680     592507  0.000e+00
    21.7958   4.930620     62.939     306465   6335.430     592771  0.000e+00
    21.7967   4.934807     63.236     306455   6337.645     593050  0.000e+00
    21.7979   4.938450     63.541     306440   6339.570     593337  0.000e+00
    21.7996   4.942655     63.840     306421   6341.793     593618  0.000e+00
    21.8017   4.946817     64.151     306396   6343.992     593910  0.000e+00
    21.8039   4.950633     64.438     306369   6346.008     594179  0.000e+00
    21.8063   4.954147     64.722     306341   6347.863     594446  0.000e+00
    21.8089   4.957440     64.990     306311   6349.602     594698  0.000e+00
    21.8116   4.961548     65.242     306279   6351.770     594934  0.000e+00
    21.8140   4.965146     65.468     306250   6353.668     595147  0.000e+00
    21.8169   4.967413     65.659     306216   6354.863     595326  0.000e+00
    21.8194   4.969731     65.799     306186   6356.086     595458  0.000e+00
    21.8219   4.971710     65.937     306157   6357.129     595587  0.000e+00
    21.8248   4.973547     66.051     306122   6358.098     595694  0.000e+00
    21.8275   4.974933     66.152     306091   6358.828     595789  0.000e+00
    21.8299   4.976015     66.250     306062   6359.398     595881  0.000e+00
    21.8323   4.976230     66.323     306034   6359.512     595950  0.000e+00
    21.8342   4.976230     66.403     306011   6359.512     596025  0.000e+00
    21.8364   4.976401     66.501     305985   6359.602     596117  0.000e+00
    21.8387   4.976230     66.618     305958   6359.512     596227  0.000e+00
    21.8407   4.975890     66.754     305935   6359.332     596355  0.000e+00
    21.8424   4.974948     66.917     305915   6358.836     596508  0.000e+00
    21.8441   4.973266     67.103     305895   6357.949     596682  0.000e+00
    21.8455   4.971680     67.317     305878   6357.113     596883  0.000e+00
    21.8464   4.969813     67.543     305867   6356.129     597096  0.000e+00
    21.8476   4.968235     67.801     305853   6355.297     597338  0.000e+00
    21.8483   4.966821     68.082     305845   6354.551     597602  0.000e+00
    21.8489   4.965177     68.376     305838   6353.684     597878  0.000e+00
    21.8496   4.963296     68.702     305830   6352.691     598184  0.000e+00
    21.8498   4.961379     69.036     305827   6351.680     598498  0.000e+00
    21.8498   4.959299     69.397     305827   6350.582     598837  0.000e+00
    21.8497   4.956790     69.742     305828   6349.258     599161  0.000e+00
    21.8496   4.955162     70.096     305830   6348.398     599494  0.000e+00
    21.8495   4.953498     70.432     305831   6347.520     599809  0.000e+00
    21.8490   4.951781     70.764     305837   6346.613     600121  0.000e+00
    21.8481   4.949592     71.065     305847   6345.457     600404  0.000e+00
    21.8475   4.947847     71.354     305854   6344.535     600675  0.000e+00
    21.8466   4.946613     71.617     305865   6343.883     600922  0.000e+00
    21.8458   4.945607     71.838     305875   6343.352     601130  0.000e+00
    21.8451   4.944934     72.013     305883   6342.996     601294  0.000e+00
    21.8445   4.943981     72.152     305890   6342.492     601425  0.000e+00
    21.8436   4.943885     72.261     305900   6342.441     601527  0.000e+00
    21.8430   4.944144     72.351     305907   6342.578     601612  0.000e+00
    21.8424   4.944735     72.431     305915   6342.891     601687  0.000e+00
    21.8416   4.945519     72.510     305924   6343.305     601761  0.000e+00
    21.8413   4.946532     72.616     305927   6343.840     601861  0.000e+00
    21.8411   4.947730     72.763     305930   6344.473     601999  0.000e+00
    21.8410   4.949142     72.951     305931   6345.219     602175  0.000e+00
    21.8408   4.951280     73.186     305933   6346.348     602396  0.000e+00
    21.8411   4.953329     73.459     305930   6347.430     602652  0.000e+00
    21.8414   4.955356     73.796     305926   6348.500     602969  0.000e+00
    21.8417   4.957081     74.140     305923   6349.410     603292  0.000e+00
    21.8423   4.959664     74.507     305916   6350.773     603637  0.000e+00
    21.8430   4.961922     74.854     305908   6351.965     603963  0.000e+00
    21.8438   4.964092     75.172     305898   6353.109     604261  0.000e+00
    21.8446   4.966432     75.461     305889   6354.344     604533  0.000e+00
    21.8456   4.967750     75.703     305877   6355.039     604760  0.000e+00
    21.8465   4.969313     75.915     305866   6355.863     604959  0.000e+00
    21.8477   4.970440     76.080     305852   6356.457     605114  0.000e+00
    21.8485   4.971314     76.199     305842   6356.918     605226  0.000e+00
    21.8495   4.972218     76.284     305831   6357.395     605306  0.000e+00
    21.8504   4.972900     76.344     305820   6357.754     605362  0.000e+00
    21.8516   4.973270     76.401     305806   6357.949     605416  0.000e+00
    21.8525   4.973270     76.463     305795   6357.949     605474  0.000e+00
    21.8533   4.973270     76.559     305786   6357.949     605564  0.000e+00
    21.8542   4.972900     76.680     305775   6357.754     605678  0.000e+00
    21.8552   4.972307     76.841     305763   6357.441     605829  0.000e+00
    21.8560   4.971603     77.043     305754   6357.070     606019  0.000e+00
    21.8569   4.970966     77.268     305743   6356.734     606230  0.000e+00
    21.8579   4.970188     77.524     305732   6356.324     606470  0.000e+00
    21.8585   4.969203     77.795     305725   6355.805     606725  0.000e+00
    21.8591   4.968411     78.080     305717   6355.387     606993  0.000e+00
    21.8596   4.967225     78.361     305712   6354.762     607256  0.000e+00
    21.8598   4.966011     78.620     305709   6354.121     607500  0.000e+00
    21.8601   4.965093     78.859     305706   6353.637     607724  0.000e+00
    21.8603   4.963952     79.064     305703   6353.035     607917  0.000e+00
    21.8607   4.962879     79.259     305699   6352.469     608100  0.000e+00
    21.8605   4.961694     79.427     305701   6351.844     608258  0.000e+00
    21.8606   4.960347     79.575     305700   6351.133     608397  0.000e+00
    21.8603   4.959377     79.726     305703   6350.621     608538  0.000e+00
    21.8602   4.958600     79.877     305705   6350.211     608680  0.000e+00
    21.8599   4.957586     80.043     305708   6349.676     608836  0.000e+00
    21.8597   4.956824     80.224     305710   6349.273     609006  0.000e+00
    21.8595   4.956232     80.421     305713   6348.961     609191  0.000e+00
    21.8590   4.955789     80.636     305719   6348.727     609393  0.000e+00
    21.8586   4.955530     80.865     305723   6348.590     609608  0.000e+00
    21.8586   4.955500     81.103     305723   6348.574     609832  0.000e+00
    21.8583   4.955781     81.346     305727   6348.723     610060  0.000e+00
    21.8582   4.956374     81.592     305728   6349.035     610291  0.000e+00
    21.8583   4.957084     81.835     305727   6349.410     610519  0.000e+00
    21.8580   4.957898     82.057     305730   6349.840     610728  0.000e+00
    21.8579   4.959164     82.267     305732   6350.508     610925  0.000e+00
    21.8579   4.960400     82.471     305732   6351.160     611117  0.000e+00
    21.8579   4.961526     82.654     305732   6351.754     611288  0.000e+00
    21.8579   4.962858     82.835     305732   6352.457     611458  0.000e+00
    21.8580   4.964236     83.018     305730   6353.184     611630  0.000e+00
    21.8584   4.965421     83.194     305726   6353.809     611796  0.000e+00
    21.8587   4.966517     83.372     305722   6354.387     611963  0.000e+00
    21.8589   4.967539     83.552     305720   6354.926     612132  0.000e+00
    21.8591   4.968554     83.737     305717   6355.461     612306  0.000e+00
    21.8596   4.969287     83.945     305712   6355.848     612501  0.000e+00
    21.8600   4.969851     84.154     305707   6356.145     612697  0.000e+00
    21.8605   4.970443     84.374     305701   6356.457     612904  0.000e+00
    21.8607   4.970955     84.599     305699   6356.727     613115  0.000e+00
    21.8613   4.971318     84.825     305691   6356.918     613327  0.000e+00
    21.8619   4.971548     85.062     305684   6357.039     613550  0.000e+00
    21.8624   4.971592     85.298     305678   6357.063     613772  0.000e+00
    21.8629   4.971577     85.530     305672   6357.055     613989  0.000e+00
    21.8635   4.971578     85.754     305666   6357.055     614200  0.000e+00
    21.8640   4.971378     85.980     305660   6356.949     614412  0.000e+00
    21.8644   4.970955     86.190     305655   6356.727     614609  0.000e+00
    21.8646   4.970585     86.390     305652   6356.531     614797  0.000e+00
    21.8652   4.970052     86.567     305646   6356.250     614963  0.000e+00
    21.8654   4.969511     86.736     305643   6355.965     615122  0.000e+00
    21.8656   4.968896     86.900     305641   6355.641     615276  0.000e+00
    21.8660   4.968304     87.066     305636   6355.328     615432  0.000e+00
    21.8660   4.967593     87.219     305636   6354.953     615576  0.000e+00
    21.8663   4.966689     87.373     305633   6354.477     615720  0.000e+00
    21.8665   4.965956     87.526     305630   6354.090     615864  0.000e+00
    21.8666   4.965171     87.680     305629   6353.676     616009  0.000e+00
    21.8667   4.964519     87.832     305628   6353.332     616151  0.000e+00
    21.8668   4.963897     87.987     305626   6353.004     616297  0.000e+00
    21.8668   4.963364     88.144     305626   6352.723     616444  0.000e+00
    21.8668   4.962942     88.287     305627   6352.500     616579  0.000e+00
    21.8668   4.962602     88.422     305627   6352.320     616705  0.000e+00
    21.8664   4.962350     88.568     305631   6352.188     616843  0.000e+00
    21.8663   4.962239     88.716     305632   6352.129     616982  0.000e+00
    21.8660   4.962291     88.877     305636   6352.156     617133  0.000e+00
    21.8657   4.962417     89.065     305640   6352.223     617309  0.000e+00
    21.8654   4.962632     89.269     305643   6352.336     617501  0.000e+00
    21.8651   4.962995     89.490     305647   6352.527     617708  0.000e+00
    21.8647   4.963365     89.748     305651   6352.723     617951  0.000e+00
    21.8646   4.963958     90.038     305653   6353.035     618223  0.000e+00
    21.8641   4.964491     90.362     305658   6353.316     618527  0.000e+00
    21.8640   4.965098     90.700     305660   6353.637     618845  0.000e+00
    21.8637   4.965646     91.027     305663   6353.926     619152  0.000e+00
    21.8636   4.966158     91.335     305664   6354.195     619441  0.000e+00
    21.8633   4.966780     91.620     305668   6354.523     619709  0.000e+00
    21.8631   4.967284     91.875     305670   6354.789     619948  0.000e+00
    21.8629   4.967928     92.108     305673   6355.129     620167  0.000e+00
    21.8628   4.968358     92.294     305674   6355.355     620342  0.000e+00
    21.8624   4.968669     92.444     305678   6355.520     620483  0.000e+00
    21.8619   4.968980     92.559     305684   6355.684     620591  0.000e+00
    21.8615   4.969232     92.641     305689   6355.816     620668  0.000e+00
    21.8612   4.969603     92.710     305693   6356.012     620732  0.000e+00
    21.8608   4.969818     92.773     305697   6356.125     620792  0.000e+00
    21.8607   4.969914     92.851     305699   6356.176     620865  0.000e+00
    21.8606   4.969944     92.950     305700   6356.191     620958  0.000e+00
    21.8600   4.969944     93.080     305707   6356.191     621080  0.000e+00
    21.8596   4.969885     93.248     305711   6356.160     621238  0.000e+00
    21.8593   4.969744     93.453     305715   6356.086     621430  0.000e+00
    21.8593   4.969470     93.681     305715   6355.941     621644  0.000e+00
    21.8592   4.969374     93.936     305716   6355.891     621884  0.000e+00
    21.8588   4.969211     94.197     305721   6355.805     622129  0.000e+00
    21.8587   4.968900     94.455     305722   6355.641     622371  0.000e+00
    21.8580   4.968611     94.699     305730   6355.488     622600  0.000e+00
    21.8578   4.968344     94.931     305733   6355.348     622818  0.000e+00
    21.8574   4.968019     95.148     305737   6355.176     623022  0.000e+00
    21.8572   4.967656     95.344     305740   6354.984     623206  0.000e+00
    21.8565   4.967315     95.527     305748   6354.805     623378  0.000e+00
    21.8557   4.966782     95.694     305757   6354.523     623535  0.000e+00
    21.8549   4.966382     95.847     305767   6354.313     623678  0.000e+00
    21.8544   4.965901     96.000     305773   6354.059     623822  0.000e+00
    21.8538   4.965486     96.161     305780   6353.840     623973  0.000e+00
    21.8529   4.965057     96.325     305791   6353.613     624127  0.000e+00
    21.8524   4.964664     96.502     305796   6353.406     624293  0.000e+00
    21.8517   4.964442     96.687     305805   6353.289     624467  0.000e+00
    21.8512   4.964183     96.874     305811   6353.152     624643  0.000e+00
    21.8507   4.964043     97.069     305816   6353.078     624826  0.000e+00
    21.8502   4.963932     97.268     305823   6353.020     625013  0.000e+00
    21.8495   4.963850     97.480     305831   6352.977     625212  0.000e+00
    21.8487   4.963902     97.696     305840   6353.004     625415  0.000e+00
    21.8475   4.964132     97.892     305854   6353.125     625599  0.000e+00
    21.8467   4.964280     98.077     305864   6353.203     625772  0.000e+00
    21.8461   4.964665     98.248     305871   6353.406     625933  0.000e+00
    21.8448   4.965006     98.399     305886   6353.586     626075  0.000e+00
    21.8440   4.965258     98.549     305896   6353.719     626216  0.000e+00
    21.8428   4.965599     98.688     305910   6353.898     626346  0.000e+00
    21.8419   4.965932     98.824     305921   6354.074     626474  0.000e+00
    21.8410   4.966110     98.958     305931   6354.168     626600  0.000e+00
    21.8401   4.966414     99.108     305942   6354.328     626741  0.000e+00
    21.8395   4.966643     99.280     305949   6354.449     626902  0.000e+00
    21.8386   4.966673     99.479     305959   6354.465     627089  0.000e+00
    21.8378   4.966866     99.698     305969   6354.566     627295  0.000e+00
    21.8369   4.966932     99.937     305979   6354.602     627519  0.000e+00
    21.8364   4.967125    100.188     305985   6354.703     627755  0.000e+00
    21.8361   4.967266    100.457     305989   6354.777     628007  0.000e+00
    21.8354   4.967207    100.727     305997   6354.746     628261  0.000e+00
    21.8348   4.967177    100.990     306004   6354.730     628508  0.000e+00
    21.8338   4.967178    101.261     306016   6354.730     628762  0.000e+00
    21.8331   4.967170    101.506     306025   6354.727     628992  0.000e+00
    21.8320   4.967007    101.729     306038   6354.641     629202  0.000e+00
    21.8309   4.966896    101.929     306050   6354.582     629390  0.000e+00
    21.8298   4.966756    102.098     306064   6354.508     629548  0.000e+00
    21.8287   4.966586    102.250     306077   6354.418     629691  0.000e+00
    21.8276   4.966341    102.387     306089   6354.289     629820  0.000e+00
    21.8265   4.965964    102.527     306103   6354.090     629951  0.000e+00
    21.8247   4.965630    102.666     306124   6353.914     630082  0.000e+00
    21.8234   4.965371    102.807     306139   6353.777     630214  0.000e+00
    21.8228   4.965090    102.951     306146   6353.629     630349  0.000e+00
    21.8221   4.964668    103.102     306155   6353.406     630491  0.000e+00
    21.8213   4.964372    103.262     306164   6353.250     630641  0.000e+00
    21.8208   4.964105    103.433     306170   6353.109     630802  0.000e+00
    21.8204   4.963824    103.618     306174   6352.961     630976  0.000e+00
    21.8201   4.963595    103.807     306178   6352.840     631153  0.000e+00
    21.8193   4.963343    103.997     306187   6352.707     631332  0.000e+00
    21.8181   4.963069    104.194     306202   6352.563     631517  0.000e+00
    21.8165   4.962810    104.386     306221   6352.426     631697  0.000e+00
    21.8144   4.962581    104.582     306245   6352.305     631881  0.000e+00
    21.8127   4.962551    104.773     306266   6352.289     632060  0.000e+00
    21.8111   4.962699    104.958     306284   6352.367     632234  0.000e+00
    21.8101   4.962670    105.138     306296   6352.352     632403  0.000e+00
    21.8089   4.962663    105.314     306311   6352.348     632568  0.000e+00
    21.8077   4.962640    105.497     306325   6352.336     632740  0.000e+00
    21.8061   4.962552    105.684     306344   6352.289     632916  0.000e+00
    21.8047   4.962611    105.871     306360   6352.320     633091  0.000e+00
    21.8034   4.962670    106.053     306375   6352.352     633262  0.000e+00
    21.8023   4.962574    106.225     306389   6352.301     633424  0.000e+00
    21.8010   4.962411    106.386     306404   6352.215     633575  0.000e+00
    21.7990   4.962530    106.548     306427   6352.277     633727  0.000e+00
    21.7978   4.962723    106.691     306442   6352.379     633861  0.000e+00
    21.7974   4.962982    106.829     306447   6352.516     633991  0.000e+00
    21.7978   4.963130    106.954     306442   6352.594     634108  0.000e+00
    21.7976   4.962952    107.068     306444   6352.500     634215  0.000e+00
    21.7962   4.962641    107.175     306461   6352.336     634316  0.000e+00
    21.7936   4.962612    107.287     306491   6352.320     634421  0.000e+00
    21.7913   4.962782    107.412     306519   6352.410     634538  0.000e+00
    21.7906   4.963093    107.559     306527   6352.574     634676  0.000e+00
    21.7903   4.963071    107.734     306531   6352.563     634841  0.000e+00
    21.7897   4.962812    107.935     306537   6352.426     635029  0.000e+00
    21.7876   4.962501    108.159     306562   6352.262     635240  0.000e+00
    21.7855   4.962701    108.425     306587   6352.367     635490  0.000e+00
    21.7843   4.962502    108.719     306601   6352.262     635766  0.000e+00
    21.7828   4.962398    109.027     306619   6352.207     636055  0.000e+00
    21.7813   4.962272    109.352     306637   6352.141     636360  0.000e+00
    21.7804   4.962110    109.682     306647   6352.055     636670  0.000e+00
    21.7794   4.961910    109.986     306659   6351.949     636955  0.000e+00
    21.7783   4.961681    110.273     306673   6351.828     637225  0.000e+00
    21.7768   4.961399    110.544     306690   6351.680     637479  0.000e+00
    21.7754   4.961148    110.771     306707   6351.547     637692  0.000e+00
    21.7738   4.960978    110.965     306726   6351.457     637875  0.000e+00
    21.7726   4.960726    111.121     306740   6351.324     638021  0.000e+00
    21.7714   4.960386    111.258     306754   6351.145     638150  0.000e+00
    21.7696   4.959912    111.372     306775   6350.895     638257  0.000e+00
    21.7678   4.959720    111.479     306797   6350.793     638357  0.000e+00
    21.7661   4.959350    111.574     306817   6350.598     638446  0.000e+00
    21.7641   4.959209    111.678     306840   6350.523     638544  0.000e+00
    21.7628   4.959009    111.790     306856   6350.418     638649  0.000e+00
    21.7619   4.958869    111.917     306867   6350.344     638768  0.000e+00
    21.7606   4.958684    112.059     306882   6350.246     638902  0.000e+00
    21.7596   4.958528    112.223     306894   6350.164     639056  0.000e+00
    21.7581   4.958247    112.407     306912   6350.016     639229  0.000e+00
    21.7561   4.958136    112.600     306935   6349.957     639410  0.000e+00
    21.7543   4.958137    112.802     306956   6349.957     639599  0.000e+00
    21.7527   4.958129    113.008     306975   6349.953     639793  0.000e+00
    21.7510   4.958026    113.220     306996   6349.898     639992  0.000e+00
    21.7490   4.958056    113.431     307019   6349.914     640190  0.000e+00
    21.7472   4.958218    113.643     307041   6350.000     640389  0.000e+00
    21.7457   4.958359    113.843     307058   6350.074     640577  0.000e+00
    21.7446   4.958308    114.032     307071   6350.047     640754  0.000e+00
    21.7427   4.958359    114.215     307094   6350.074     640926  0.000e+00
    21.7413   4.958337    114.391     307111   6350.063     641091  0.000e+00
    21.7397   4.957997    114.556     307129   6349.883     641246  0.000e+00
    21.7378   4.957997    114.717     307152   6349.883     641398  0.000e+00
    21.7365   4.957953    114.867     307168   6349.859     641538  0.000e+00
    21.7348   4.957827    115.014     307188   6349.793     641676  0.000e+00
    21.7336   4.957746    115.161     307202   6349.750     641814  0.000e+00
    21.7327   4.957627    115.312     307213   6349.688     641956  0.000e+00
    21.7314   4.957435    115.469     307228   6349.586     642104  0.000e+00
    21.7297   4.957280    115.628     307248   6349.504     642253  0.000e+00
    21.7286   4.957154    115.797     307261   6349.438     642412  0.000e+00
    21.7272   4.956903    115.964     307278   6349.305     642568  0.000e+00
    21.7249   4.956533    116.135     307305   6349.109     642729  0.000e+00
    21.7223   4.956281    116.316     307336   6348.977     642899  0.000e+00
    21.7197   4.956104    116.498     307367   6348.883     643070  0.000e+00
    21.7176   4.956082    116.679     307391   6348.871     643240  0.000e+00
    21.7161   4.956111    116.855     307409   6348.887     643405  0.000e+00
    21.7154   4.955941    117.021     307418   6348.797     643561  0.000e+00
    21.7143   4.955719    117.184     307431   6348.680     643714  0.000e+00
    21.7124   4.955512    117.352     307453   6348.570     643872  0.000e+00
    21.7106   4.955327    117.516     307474   6348.473     644026  0.000e+00
    21.7090   4.955098    117.676     307494   6348.352     644176  0.000e+00
    21.7074   4.954817    117.851     307512   6348.203     644340  0.000e+00
    21.7062   4.954765    118.032     307527   6348.176     644510  0.000e+00
    21.7049   4.954396    118.216     307542   6347.980     644683  0.000e+00
    21.7029   4.954004    118.409     307566   6347.773     644864  0.000e+00
    21.7005   4.953723    118.605     307594   6347.625     645048  0.000e+00
    21.6982   4.953471    118.807     307622   6347.492     645238  0.000e+00
    21.6961   4.953212    119.012     307647   6347.355     645430  0.000e+00
    21.6939   4.952835    119.212     307673   6347.156     645618  0.000e+00
    21.6909   4.952488    119.415     307708   6346.973     645809  0.000e+00
    21.6880   4.952347    119.616     307743   6346.898     645997  0.000e+00
    21.6857   4.952229    119.814     307770   6346.836     646183  0.000e+00
    21.6834   4.952066    119.997     307797   6346.750     646355  0.000e+00
    21.6815   4.952133    120.169     307820   6346.785     646517  0.000e+00
    21.6801   4.952089    120.332     307836   6346.762     646670  0.000e+00
    21.6787   4.951926    120.494     307853   6346.676     646822  0.000e+00
    21.6770   4.951837    120.659     307873   6346.629     646977  0.000e+00
    21.6756   4.951786    120.836     307890   6346.602     647143  0.000e+00
    21.6737   4.951697    121.014     307912   6346.555     647310  0.000e+00
    21.6722   4.951557    121.210     307930   6346.480     647494  0.000e+00
    21.6703   4.951335    121.420     307953   6346.363     647691  0.000e+00
    21.6681   4.951076    121.627     307979   6346.227     647886  0.000e+00
    21.6652   4.950684    121.827     308014   6346.020     648073  0.000e+00
    21.6619   4.950684    122.010     308053   6346.020     648245  0.000e+00
    21.6599   4.950662    122.174     308076   6346.008     648399  0.000e+00
    21.6585   4.950485    122.318     308093   6345.914     648534  0.000e+00
    21.6572   4.950263    122.438     308109   6345.797     648647  0.000e+00
    21.6550   4.950123    122.541     308135   6345.723     648744  0.000e+00
    21.6534   4.950212    122.629     308154   6345.770     648826  0.000e+00
    21.6521   4.949982    122.709     308169   6345.648     648901  0.000e+00
    21.6502   4.949753    122.792     308192   6345.527     648979  0.000e+00
    21.6480   4.949539    122.890     308218   6345.414     649071  0.000e+00
    21.6458   4.949310    123.003     308244   6345.293     649177  0.000e+00
    21.6434   4.949117    123.141     308273   6345.191     649307  0.000e+00
    21.6411   4.948888    123.307     308300   6345.070     649463  0.000e+00
    21.6387   4.948726    123.500     308328   6344.984     649644  0.000e+00
    21.6370   4.948607    123.716     308349   6344.922     649847  0.000e+00
    21.6355   4.948526    123.953     308366   6344.879     650069  0.000e+00
    21.6344   4.948157    124.212     308380   6344.684     650313  0.000e+00
    21.6326   4.947905    124.460     308401   6344.551     650545  0.000e+00
    21.6304   4.947735    124.697     308427   6344.461     650768  0.000e+00
    21.6290   4.947736    124.925     308444   6344.461     650982  0.000e+00
    21.6280   4.947625    125.147     308456   6344.402     651190  0.000e+00
    21.6266   4.947322    125.340     308472   6344.242     651372  0.000e+00
    21.6247   4.947144    125.511     308495   6344.148     651532  0.000e+00
    21.6229   4.946782    125.663     308517   6343.957     651675  0.000e+00
    21.6198   4.946339    125.782     308553   6343.723     651787  0.000e+00
    21.6164   4.945940    125.887     308594   6343.512     651885  0.000e+00
    21.6132   4.945777    125.990     308632   6343.426     651982  0.000e+00
    21.6106   4.945467    126.102     308663   6343.262     652087  0.000e+00
    21.6078   4.945186    126.224     308696   6343.113     652202  0.000e+00
    21.6053   4.944934    126.376     308726   6342.980     652344  0.000e+00
    21.6030   4.944683    126.565     308753   6342.848     652522  0.000e+00
    21.6009   4.944447    126.790     308778   6342.723     652733  0.000e+00
    21.5988   4.944284    127.062     308803   6342.637     652988  0.000e+00
    21.5968   4.944233    127.367     308827   6342.609     653275  0.000e+00
    21.5955   4.944122    127.702     308842   6342.551     653589  0.000e+00
    21.5940   4.943945    128.042     308860   6342.457     653908  0.000e+00
    21.5919   4.943812    128.379     308886   6342.387     654225  0.000e+00
    21.5898   4.943642    128.682     308910   6342.297     654509  0.000e+00
    21.5872   4.943421    128.940     308941   6342.180     654752  0.000e+00
    21.5848   4.943310    129.147     308970   6342.121     654946  0.000e+00
    21.5822   4.942918    129.319     309001   6341.914     655107  0.000e+00
    21.5787   4.942689    129.431     309043   6341.793     655213  0.000e+00
    21.5756   4.942638    129.500     309080   6341.766     655277  0.000e+00
    21.5731   4.942468    129.527     309109   6341.676     655303  0.000e+00
    21.5708   4.942335    129.532     309137   6341.605     655307  0.000e+00
    21.5690   4.942098    129.525     309158   6341.480     655301  0.000e+00
    21.5671   4.941987    129.523     309181   6341.422     655299  0.000e+00
    21.5652   4.941625    129.558     309204   6341.230     655332  0.000e+00
    21.5623   4.940982    129.635     309238   6340.891     655404  0.000e+00
    21.5585   4.940635    129.759     309283   6340.707     655520  0.000e+00
    21.5550   4.940502    129.915     309325   6340.637     655667  0.000e+00
    21.5527   4.940310    130.086     309352   6340.535     655827  0.000e+00
    21.5507   4.939941    130.268     309376   6340.340     655998  0.000e+00
    21.5482   4.939874    130.449     309406   6340.305     656168  0.000e+00
    21.5465   4.939690    130.640     309427   6340.207     656348  0.000e+00
    21.5442   4.939298    130.823     309454   6340.000     656519  0.000e+00
    21.5413   4.939128    130.988     309489   6339.910     656674  0.000e+00
    21.5385   4.939114    131.149     309522   6339.902     656825  0.000e+00
    21.5366   4.938966    131.299     309545   6339.824     656966  0.000e+00
    21.5340   4.938708    131.452     309576   6339.688     657110  0.000e+00
    21.5311   4.938375    131.615     309610   6339.512     657263  0.000e+00
    21.5274   4.938087    131.781     309655   6339.359     657419  0.000e+00
    21.5242   4.937622    131.951     309693   6339.113     657578  0.000e+00
    21.5209   4.937452    132.137     309732   6339.023     657753  0.000e+00
    21.5184   4.937142    132.327     309762   6338.859     657931  0.000e+00
    21.5160   4.936721    132.531     309791   6338.637     658123  0.000e+00
    21.5136   4.936448    132.737     309819   6338.492     658316  0.000e+00
    21.5116   4.936219    132.950     309843   6338.371     658516  0.000e+00
    21.5101   4.936189    133.153     309861   6338.355     658707  0.000e+00
    21.5090   4.935798    133.350     309874   6338.148     658892  0.000e+00
    21.5069   4.935303    133.540     309899   6337.887     659070  0.000e+00
    21.5031   4.934565    133.719     309944   6337.496     659238  0.000e+00
    21.4985   4.934203    133.901     310000   6337.305     659409  0.000e+00
    21.4944   4.934233    134.080     310048   6337.320     659577  0.000e+00
    21.4919   4.934196    134.269     310078   6337.301     659755  0.000e+00
    21.4898   4.933642    134.465     310103   6337.008     659939  0.000e+00
    21.4859   4.933229    134.674     310150   6336.789     660135  0.000e+00
    21.4819   4.933029    134.902     310198   6336.684     660349  0.000e+00
    21.4788   4.933052    135.126     310235   6336.695     660559  0.000e+00
    21.4766   4.932971    135.359     310261   6336.652     660778  0.000e+00
    21.4752   4.932831    135.590     310278   6336.578     660995  0.000e+00
    21.4729   4.932247    135.805     310306   6336.270     661197  0.000e+00
    21.4694   4.932063    136.017     310347   6336.172     661396  0.000e+00
    21.4667   4.931827    136.214     310380   6336.047     661581  0.000e+00
    21.4642   4.931856    136.398     310410   6336.063     661753  0.000e+00
    21.4629   4.931797    136.568     310425   6336.031     661913  0.000e+00
    21.4612   4.931332    136.720     310446   6335.785     662056  0.000e+00
    21.4581   4.930683    136.862     310483   6335.441     662189  0.000e+00
    21.4536   4.930343    136.997     310536   6335.262     662316  0.000e+00
    21.4499   4.930321    137.132     310581   6335.250     662442  0.000e+00
    21.4470   4.930129    137.273     310615   6335.148     662575  0.000e+00
    21.4450   4.929930    137.419     310639   6335.043     662712  0.000e+00
    21.4424   4.929590    137.576     310670   6334.863     662859  0.000e+00
    21.4394   4.929310    137.737     310706   6334.715     663010  0.000e+00
    21.4362   4.929111    137.906     310744   6334.609     663169  0.000e+00
    21.4337   4.928779    138.074     310774   6334.434     663327  0.000e+00
    21.4304   4.928306    138.239     310814   6334.184     663482  0.000e+00
    21.4265   4.928026    138.408     310861   6334.035     663640  0.000e+00
    21.4230   4.927738    138.574     310903   6333.883     663796  0.000e+00
    21.4199   4.927583    138.740     310940   6333.801     663952  0.000e+00
    21.4175   4.927524    138.899     310969   6333.770     664101  0.000e+00
    21.4149   4.926993    139.043     311000   6333.488     664236  0.000e+00
    21.4119   4.926366    139.180     311036   6333.156     664365  0.000e+00
    21.4074   4.926100    139.318     311089   6333.016     664495  0.000e+00
    21.4043   4.926181    139.465     311127   6333.059     664633  0.000e+00
    21.4023   4.925694    139.611     311151   6332.801     664770  0.000e+00
    21.3992   4.925178    139.758     311188   6332.527     664908  0.000e+00
    21.3953   4.924927    139.902     311235   6332.395     665043  0.000e+00
    21.3923   4.924735    140.045     311271   6332.293     665177  0.000e+00
    21.3903   4.924470    140.191     311294   6332.152     665314  0.000e+00
    21.3878   4.924035    140.324     311324   6331.922     665439  0.000e+00
    21.3848   4.923813    140.466     311360   6331.805     665572  0.000e+00
    21.3827   4.923474    140.595     311386   6331.625     665693  0.000e+00
    21.3796   4.922980    140.737     311423   6331.363     665827  0.000e+00
    21.3756   4.922500    140.890     311471   6331.109     665970  0.000e+00
    21.3721   4.922471    141.069     311513   6331.094     666138  0.000e+00
    21.3692   4.922139    141.277     311547   6330.918     666334  0.000e+00
    21.3658   4.921431    141.543     311588   6330.543     666583  0.000e+00
    21.3609   4.920996    141.834     311647   6330.313     666857  0.000e+00
    21.3567   4.921136    142.156     311698   6330.387     667159  0.000e+00
    21.3546   4.921144    142.498     311723   6330.391     667480  0.000e+00
    21.3531   4.920908    142.842     311741   6330.266     667803  0.000e+00
    21.3511   4.920547    143.192     311765   6330.074     668131  0.000e+00
    21.3480   4.920134    143.531     311802   6329.855     668450  0.000e+00
    21.3449   4.920008    143.821     311839   6329.789     668722  0.000e+00
    21.3421   4.919603    144.093     311873   6329.574     668977  0.000e+00
    21.3388   4.919242    144.315     311913   6329.383     669186  0.000e+00
    21.3357   4.919153    144.515     311950   6329.336     669373  0.000e+00
    21.3330   4.918785    144.685     311982   6329.141     669533  0.000e+00
    21.3298   4.918372    144.829     312021   6328.922     669668  0.000e+00
    21.3260   4.918069    144.960     312066   6328.762     669791  0.000e+00
    21.3234   4.918025    145.089     312098   6328.738     669912  0.000e+00
    21.3209   4.917679    145.212     312127   6328.555     670028  0.000e+00
    21.3175   4.917096    145.357     312168   6328.246     670164  0.000e+00
    21.3135   4.916727    145.523     312217   6328.051     670320  0.000e+00
    21.3093   4.916071    145.705     312267   6327.703     670490  0.000e+00
    21.3046   4.915813    145.900     312324   6327.566     670673  0.000e+00
    21.3010   4.915843    146.093     312367   6327.582     670855  0.000e+00
    21.2985   4.915172    146.273     312397   6327.227     671024  0.000e+00
    21.2943   4.914840    146.452     312448   6327.051     671192  0.000e+00
    21.2906   4.914612    146.618     312492   6326.930     671347  0.000e+00
    21.2872   4.914310    146.766     312533   6326.770     671486  0.000e+00
    21.2834   4.913919    146.905     312579   6326.563     671617  0.000e+00
    21.2795   4.913610    147.028     312626   6326.398     671732  0.000e+00
    21.2754   4.913448    147.142     312675   6326.313     671839  0.000e+00
    21.2721   4.912961    147.248     312715   6326.055     671939  0.000e+00
    21.2677   4.912224    147.355     312767   6325.664     672039  0.000e+00
    21.2621   4.911863    147.474     312835   6325.473     672151  0.000e+00
    21.2579   4.911885    147.610     312886   6325.484     672279  0.000e+00
    21.2554   4.911856    147.761     312916   6325.469     672420  0.000e+00
    21.2542   4.911694    147.925     312930   6325.383     672574  0.000e+00
    21.2530   4.911082    148.103     312944   6325.059     672741  0.000e+00
    21.2497   4.910257    148.293     312984   6324.621     672920  0.000e+00
    21.2443   4.909638    148.493     313049   6324.293     673108  0.000e+00
    21.2396   4.909439    148.684     313106   6324.188     673287  0.000e+00
    21.2360   4.909299    148.861     313149   6324.113     673453  0.000e+00
    21.2333   4.908805    149.038     313182   6323.852     673619  0.000e+00
    21.2310   4.908717    149.207     313210   6323.805     673778  0.000e+00
    21.2281   4.908135    149.377     313244   6323.496     673937  0.000e+00
    21.2237   4.907317    149.561     313298   6323.063     674110  0.000e+00
    21.2179   4.906941    149.744     313367   6322.863     674282  0.000e+00
    21.2121   4.906411    149.942     313437   6322.582     674468  0.000e+00
    21.2077   4.906271    150.154     313491   6322.508     674667  0.000e+00
    21.2041   4.906021    150.389     313534   6322.375     674887  0.000e+00
    21.2006   4.905719    150.643     313576   6322.215     675126  0.000e+00
    21.1971   4.905343    150.923     313619   6322.016     675389  0.000e+00
    21.1937   4.904909    151.200     313659   6321.785     675649  0.000e+00
    21.1903   4.904637    151.473     313700   6321.641     675905  0.000e+00
    21.1878   4.904438    151.737     313731   6321.535     676153  0.000e+00
    21.1850   4.904070    151.994     313764   6321.340     676394  0.000e+00
    21.1816   4.903716    152.240     313805   6321.152     676625  0.000e+00
    21.1784   4.903355    152.471     313844   6320.961     676842  0.000e+00
    21.1747   4.902759    152.685     313889   6320.645     677043  0.000e+00
    21.1701   4.902354    152.874     313945   6320.430     677220  0.000e+00
    21.1661   4.902384    153.041     313993   6320.445     677377  0.000e+00
    21.1640   4.902236    153.191     314018   6320.367     677518  0.000e+00
    21.1612   4.901633    153.325     314052   6320.047     677643  0.000e+00
    21.1571   4.901080    153.434     314101   6319.754     677746  0.000e+00
    21.1525   4.900734    153.535     314157   6319.570     677840  0.000e+00
    21.1479   4.900248    153.626     314213   6319.313     677926  0.000e+00
    21.1427   4.899556    153.721     314275   6318.945     678015  0.000e+00
    21.1375   4.899137    153.831     314338   6318.723     678118  0.000e+00
    21.1323   4.898702    153.955     314401   6318.492     678235  0.000e+00
    21.1276   4.898415    154.099     314458   6318.340     678370  0.000e+00
    21.1236   4.897922    154.258     314507   6318.078     678519  0.000e+00
    21.1189   4.897311    154.446     314564   6317.754     678696  0.000e+00
    21.1143   4.897503    154.646     314619   6317.855     678883  0.000e+00
    21.1122   4.897613    154.869     314644   6317.914     679093  0.000e+00
    21.1110   4.897047    155.110     314659   6317.613     679319  0.000e+00
    21.1071   4.896200    155.349     314706   6317.164     679543  0.000e+00
    21.1017   4.896031    155.598     314772   6317.074     679777  0.000e+00
    21.0980   4.895950    155.825     314817   6317.031     679990  0.000e+00
    21.0948   4.895369    156.041     314855   6316.723     680193  0.000e+00
    21.0908   4.894957    156.234     314904   6316.504     680374  0.000e+00
    21.0867   4.894589    156.397     314953   6316.309     680527  0.000e+00
    21.0833   4.894236    156.547     314995   6316.121     680668  0.000e+00
    21.0795   4.893684    156.676     315040   6315.828     680789  0.000e+00
    21.0752   4.893287    156.805     315093   6315.617     680910  0.000e+00
    21.0700   4.892433    156.906     315155   6315.164     681005  0.000e+00
    21.0645   4.892072    157.003     315222   6314.973     681096  0.000e+00
    21.0598   4.891491    157.102     315279   6314.664     681189  0.000e+00
    21.0558   4.891300    157.207     315328   6314.563     681287  0.000e+00
    21.0524   4.891050    157.317     315369   6314.430     681390  0.000e+00
    21.0493   4.890476    157.447     315406   6314.125     681512  0.000e+00
    21.0452   4.889748    157.587     315456   6313.738     681644  0.000e+00
    21.0402   4.889498    157.747     315517   6313.605     681794  0.000e+00
    21.0366   4.889579    157.917     315560   6313.648     681954  0.000e+00
    21.0349   4.889167    158.102     315581   6313.430     682127  0.000e+00
    21.0322   4.888755    158.296     315614   6313.211     682309  0.000e+00
    21.0287   4.888226    158.501     315657   6312.930     682502  0.000e+00
    21.0242   4.887703    158.705     315711   6312.652     682693  0.000e+00
    21.0193   4.887512    158.919     315771   6312.551     682894  0.000e+00
    21.0154   4.887182    159.132     315818   6312.375     683094  0.000e+00
    21.0110   4.886762    159.346     315871   6312.152     683295  0.000e+00
    21.0067   4.886490    159.563     315923   6312.008     683499  0.000e+00
    21.0027   4.885998    159.774     315972   6311.746     683697  0.000e+00
    20.9983   4.885299    159.980     316026   6311.375     683890  0.000e+00
    20.9936   4.885219    160.165     316083   6311.332     684064  0.000e+00
    20.9901   4.885277    160.335     316125   6311.363     684223  0.000e+00
    20.9884   4.885050    160.490     316146   6311.242     684369  0.000e+00
    20.9864   4.884351    160.629     316170   6310.871     684499  0.000e+00
    20.9821   4.883616    160.758     316223   6310.480     684620  0.000e+00
    20.9769   4.883447    160.889     316286   6310.391     684743  0.000e+00
    20.9728   4.883050    161.009     316336   6310.180     684856  0.000e+00
    20.9695   4.882947    161.142     316376   6310.125     684981  0.000e+00
    20.9664   4.882285    161.267     316413   6309.773     685098  0.000e+00
    20.9617   4.881638    161.410     316471   6309.430     685232  0.000e+00
    20.9567   4.881264    161.563     316531   6309.230     685376  0.000e+00
    20.9519   4.880881    161.726     316590   6309.027     685529  0.000e+00
    20.9479   4.880566    161.891     316638   6308.859     685684  0.000e+00
    20.9437   4.879941    162.068     316690   6308.527     685850  0.000e+00
    20.9381   4.879279    162.246     316757   6308.176     686017  0.000e+00
    20.9329   4.878956    162.429     316821   6308.004     686189  0.000e+00
    20.9283   4.878780    162.621     316877   6307.910     686369  0.000e+00
    20.9251   4.878758    162.804     316916   6307.898     686541  0.000e+00
    20.9225   4.878148    162.977     316948   6307.574     686703  0.000e+00
    20.9182   4.877428    163.143     317000   6307.191     686859  0.000e+00
    20.9131   4.877193    163.294     317062   6307.066     687001  0.000e+00
    20.9085   4.876745    163.440     317118   6306.828     687138  0.000e+00
    20.9040   4.876083    163.586     317173   6306.477     687275  0.000e+00
    20.8978   4.874886    163.728     317248   6305.840     687408  0.000e+00
    20.8902   4.874482    163.884     317341   6305.625     687554  0.000e+00
    20.8844   4.874482    164.040     317412   6305.625     687701  0.000e+00
    20.8815   4.874254    164.216     317447   6305.504     687866  0.000e+00
    20.8787   4.873902    164.419     317481   6305.316     688057  0.000e+00
    20.8756   4.873248    164.637     317519   6304.969     688261  0.000e+00
    20.8714   4.872719    164.871     317570   6304.688     688481  0.000e+00
    20.8667   4.872470    165.118     317628   6304.555     688713  0.000e+00
    20.8631   4.872242    165.363     317672   6304.434     688943  0.000e+00
    20.8603   4.871809    165.602     317706   6304.203     689167  0.000e+00
    20.8568   4.871339    165.832     317749   6303.953     689383  0.000e+00
    20.8528   4.870884    166.046     317797   6303.711     689584  0.000e+00
    20.8482   4.870568    166.249     317853   6303.543     689774  0.000e+00
    20.8442   4.870135    166.432     317902   6303.313     689946  0.000e+00
    20.8399   4.869606    166.591     317955   6303.031     690095  0.000e+00
    20.8348   4.869276    166.723     318017   6302.855     690219  0.000e+00
    20.8306   4.869070    166.834     318068   6302.746     690323  0.000e+00
    20.8278   4.868894    166.925     318103   6302.652     690409  0.000e+00
    20.8253   4.868725    167.013     318133   6302.563     690491  0.000e+00
    20.8228   4.868152    167.100     318164   6302.258     690573  0.000e+00
    20.8191   4.867712    167.200     318209   6302.023     690667  0.000e+00
    20.8149   4.867345    167.310     318260   6301.828     690770  0.000e+00
    20.8112   4.866941    167.429     318305   6301.613     690882  0.000e+00
    20.8070   4.866332    167.559     318357   6301.289     691004  0.000e+00
    20.8018   4.865649    167.723     318420   6300.926     691158  0.000e+00
    20.7963   4.865040    167.897     318488   6300.602     691321  0.000e+00
    20.7900   4.864504    168.063     318565   6300.316     691477  0.000e+00
    20.7842   4.864189    168.236     318636   6300.148     691639  0.000e+00
    20.7800   4.863939    168.400     318687   6300.016     691793  0.000e+00
    20.7757   4.863323    168.546     318740   6299.688     691930  0.000e+00
    20.7709   4.862868    168.695     318798   6299.445     692070  0.000e+00
    20.7656   4.862295    168.848     318864   6299.141     692214  0.000e+00
    20.7604   4.862031    168.983     318927   6299.000     692340  0.000e+00
    20.7559   4.861716    169.109     318982   6298.832     692459  0.000e+00
    20.7521   4.861341    169.237     319029   6298.633     692579  0.000e+00
    20.7485   4.860945    169.381     319073   6298.422     692714  0.000e+00
    20.7450   4.860564    169.553     319116   6298.219     692875  0.000e+00
    20.7406   4.859992    169.742     319169   6297.914     693053  0.000e+00
    20.7362   4.859434    169.937     319223   6297.617     693236  0.000e+00
    20.7309   4.858502    170.140     319289   6297.121     693426  0.000e+00
    20.7242   4.858092    170.343     319371   6296.902     693617  0.000e+00
    20.7189   4.857952    170.555     319436   6296.828     693816  0.000e+00
    20.7152   4.857696    170.757     319481   6296.691     694005  0.000e+00
    20.7123   4.856779    170.945     319516   6296.203     694182  0.000e+00
    20.7065   4.855979    171.116     319588   6295.777     694342  0.000e+00
    20.7006   4.855899    171.264     319660   6295.734     694481  0.000e+00
    20.6965   4.855620    171.396     319710   6295.586     694605  0.000e+00
    20.6934   4.855319    171.528     319748   6295.426     694729  0.000e+00
    20.6904   4.854967    171.663     319785   6295.238     694856  0.000e+00
    20.6870   4.854601    171.821     319827   6295.043     695004  0.000e+00
    20.6832   4.853926    172.004     319873   6294.684     695176  0.000e+00
    20.6784   4.853508    172.223     319933   6294.461     695381  0.000e+00
    20.6734   4.852995    172.473     319994   6294.188     695616  0.000e+00
    20.6688   4.852797    172.733     320051   6294.082     695860  0.000e+00
    20.6645   4.852247    173.008     320103   6293.789     696118  0.000e+00
    20.6596   4.851456    173.280     320164   6293.367     696373  0.000e+00
    20.6543   4.851075    173.526     320229   6293.164     696604  0.000e+00
    20.6492   4.850664    173.746     320291   6292.945     696811  0.000e+00
    20.6448   4.850246    173.921     320345   6292.723     696975  0.000e+00
    20.6405   4.850004    174.052     320398   6292.594     697098  0.000e+00
    20.6376   4.850085    174.148     320434   6292.637     697188  0.000e+00
    20.6359   4.849873    174.200     320455   6292.523     697237  0.000e+00
    20.6333   4.848854    174.227     320487   6291.980     697262  0.000e+00
    20.6272   4.848099    174.231     320562   6291.578     697266  0.000e+00
    20.6205   4.847703    174.221     320644   6291.367     697256  0.000e+00
    20.6150   4.847351    174.208     320712   6291.180     697244  0.000e+00
    20.6102   4.846926    174.212     320771   6290.953     697248  0.000e+00
    20.6054   4.846391    174.243     320830   6290.668     697277  0.000e+00
    20.6008   4.846039    174.318     320886   6290.480     697348  0.000e+00
    20.5963   4.845541    174.429     320942   6290.215     697452  0.000e+00
    20.5913   4.845123    174.581     321004   6289.992     697594  0.000e+00
    20.5870   4.844830    174.770     321057   6289.836     697772  0.000e+00
    20.5835   4.844559    174.980     321100   6289.691     697969  0.000e+00
    20.5799   4.843951    175.214     321144   6289.367     698188  0.000e+00
    20.5758   4.843519    175.438     321195   6289.137     698399  0.000e+00
    20.5709   4.842721    175.674     321255   6288.711     698620  0.000e+00
    20.5650   4.842179    175.901     321328   6288.422     698833  0.000e+00
    20.5589   4.841922    176.099     321403   6288.285     699019  0.000e+00
    20.5546   4.841717    176.295     321456   6288.176     699203  0.000e+00
    20.5508   4.841439    176.485     321502   6288.027     699381  0.000e+00
    20.5478   4.840926    176.668     321540   6287.754     699553  0.000e+00
    20.5437   4.840436    176.848     321590   6287.492     699722  0.000e+00
    20.5392   4.839982    177.020     321646   6287.250     699883  0.000e+00
    20.5349   4.839557    177.178     321699   6287.023     700032  0.000e+00
    20.5310   4.839008    177.340     321747   6286.730     700184  0.000e+00
    20.5262   4.838495    177.511     321806   6286.457     700344  0.000e+00
    20.5217   4.838239    177.675     321861   6286.320     700498  0.000e+00
    20.5187   4.838004    177.834     321898   6286.195     700647  0.000e+00
    20.5154   4.837294    177.995     321939   6285.816     700798  0.000e+00
    20.5107   4.836525    178.148     321997   6285.406     700942  0.000e+00
    20.5043   4.835574    178.299     322076   6284.898     701084  0.000e+00
    20.4963   4.834959    178.450     322175   6284.570     701225  0.000e+00
    20.4898   4.834702    178.591     322255   6284.434     701358  0.000e+00
    20.4847   4.834161    178.726     322318   6284.145     701484  0.000e+00
    20.4800   4.833883    178.856     322377   6283.996     701606  0.000e+00
    20.4762   4.833817    178.972     322423   6283.961     701715  0.000e+00
    20.4741   4.833744    179.077     322450   6283.922     701814  0.000e+00
    20.4718   4.833019    179.201     322478   6283.535     701930  0.000e+00
    20.4671   4.832272    179.334     322536   6283.137     702055  0.000e+00
    20.4611   4.831811    179.471     322610   6282.891     702184  0.000e+00
    20.4559   4.831819    179.625     322674   6282.895     702328  0.000e+00
    20.4529   4.831482    179.766     322712   6282.715     702460  0.000e+00
    20.4494   4.830941    179.902     322755   6282.426     702588  0.000e+00
    20.4448   4.830282    180.048     322812   6282.074     702725  0.000e+00
    20.4389   4.829258    180.191     322885   6281.527     702859  0.000e+00
    20.4319   4.828680    180.326     322971   6281.219     702986  0.000e+00
    20.4251   4.828350    180.454     323056   6281.043     703106  0.000e+00
    20.4202   4.828241    180.574     323116   6280.984     703219  0.000e+00
    20.4169   4.828204    180.678     323157   6280.965     703316  0.000e+00
    20.4147   4.827831    180.783     323184   6280.766     703415  0.000e+00
    20.4118   4.827319    180.898     323220   6280.492     703523  0.000e+00
    20.4082   4.827012    181.014     323265   6280.328     703632  0.000e+00
    20.4042   4.826470    181.150     323314   6280.039     703759  0.000e+00
    20.3997   4.825980    181.306     323370   6279.777     703906  0.000e+00
    20.3952   4.825629    181.476     323426   6279.590     704065  0.000e+00
    20.3912   4.825190    181.659     323476   6279.355     704237  0.000e+00
    20.3866   4.824540    181.855     323533   6279.008     704421  0.000e+00
    20.3808   4.823794    182.053     323605   6278.609     704607  0.000e+00
    20.3741   4.823318    182.250     323688   6278.355     704792  0.000e+00
    20.3695   4.823172    182.436     323745   6278.277     704966  0.000e+00
    20.3659   4.822799    182.609     323790   6278.078     705129  0.000e+00
    20.3625   4.822485    182.758     323832   6277.910     705268  0.000e+00
    20.3587   4.821849    182.880     323879   6277.570     705383  0.000e+00
    20.3543   4.821432    182.984     323933   6277.348     705481  0.000e+00
    20.3500   4.821110    183.071     323987   6277.176     705562  0.000e+00
    20.3461   4.820554    183.150     324035   6276.879     705636  0.000e+00
    20.3415   4.819889    183.233     324092   6276.523     705714  0.000e+00
    20.3359   4.819472    183.322     324162   6276.301     705798  0.000e+00
    20.3311   4.819100    183.432     324221   6276.102     705901  0.000e+00
    20.3267   4.818654    183.569     324276   6275.863     706030  0.000e+00
    20.3224   4.818149    183.726     324329   6275.594     706177  0.000e+00
    20.3179   4.817601    183.924     324385   6275.301     706363  0.000e+00
    20.3132   4.817280    184.160     324444   6275.129     706584  0.000e+00
    20.3088   4.816636    184.407     324499   6274.785     706816  0.000e+00
    20.3039   4.816198    184.656     324560   6274.551     707050  0.000e+00
    20.2991   4.816008    184.909     324619   6274.449     707287  0.000e+00
    20.2953   4.815438    185.123     324666   6274.145     707488  0.000e+00
    20.2900   4.814758    185.319     324732   6273.781     707672  0.000e+00
    20.2843   4.814320    185.483     324803   6273.547     707826  0.000e+00
    20.2796   4.814050    185.609     324862   6273.402     707944  0.000e+00
    20.2751   4.813480    185.690     324917   6273.098     708020  0.000e+00
    20.2698   4.812632    185.731     324983   6272.645     708058  0.000e+00
    20.2637   4.812340    185.750     325060   6272.488     708076  0.000e+00
    20.2584   4.812011    185.743     325126   6272.313     708070  0.000e+00
    20.2542   4.811609    185.726     325178   6272.098     708054  0.000e+00
    20.2506   4.811244    185.706     325223   6271.902     708035  0.000e+00
    20.2466   4.810879    185.700     325272   6271.707     708029  0.000e+00
    20.2426   4.810367    185.722     325322   6271.434     708050  0.000e+00
    20.2383   4.809958    185.783     325376   6271.215     708107  0.000e+00
    20.2340   4.809461    185.890     325429   6270.949     708208  0.000e+00
    20.2294   4.808979    186.045     325487   6270.691     708353  0.000e+00
    20.2244   4.808329    186.257     325549   6270.344     708552  0.000e+00
    20.2197   4.808059    186.500     325608   6270.199     708780  0.000e+00
    20.2153   4.807446    186.775     325662   6269.871     709038  0.000e+00
    20.2104   4.807271    187.068     325724   6269.777     709313  0.000e+00
    20.2069   4.806993    187.360     325767   6269.629     709587  0.000e+00
    20.2031   4.806300    187.650     325814   6269.258     709859  0.000e+00
    20.1981   4.805832    187.912     325877   6269.008     710105  0.000e+00
    20.1933   4.805380    188.154     325937   6268.766     710332  0.000e+00
    20.1879   4.804620    188.363     326004   6268.359     710528  0.000e+00
    20.1813   4.804000    188.540     326087   6268.027     710694  0.000e+00
    20.1753   4.803569    188.681     326162   6267.797     710827  0.000e+00
    20.1700   4.803350    188.777     326228   6267.680     710917  0.000e+00
    20.1662   4.803146    188.843     326275   6267.570     710979  0.000e+00
    20.1634   4.802642    188.874     326310   6267.301     711008  0.000e+00
    20.1596   4.801876    188.887     326358   6266.891     711020  0.000e+00
    20.1546   4.801372    188.893     326420   6266.621     711026  0.000e+00
    20.1496   4.801080    188.900     326483   6266.465     711032  0.000e+00
    20.1454   4.800751    188.921     326535   6266.289     711052  0.000e+00
    20.1415   4.799978    188.967     326584   6265.875     711095  0.000e+00
    20.1363   4.799241    189.035     326649   6265.480     711159  0.000e+00
    20.1305   4.798825    189.138     326721   6265.258     711256  0.000e+00
    20.1256   4.798591    189.266     326783   6265.133     711376  0.000e+00
    20.1216   4.798394    189.408     326832   6265.027     711509  0.000e+00
    20.1184   4.797781    189.571     326873   6264.699     711662  0.000e+00
    20.1136   4.797095    189.746     326933   6264.332     711826  0.000e+00
    20.1083   4.796869    189.926     326999   6264.211     711995  0.000e+00
    20.1033   4.796402    190.108     327062   6263.961     712166  0.000e+00
    20.0984   4.795972    190.287     327123   6263.730     712334  0.000e+00
    20.0934   4.795213    190.458     327185   6263.324     712494  0.000e+00
    20.0870   4.794469    190.613     327266   6262.926     712640  0.000e+00
    20.0810   4.794433    190.757     327341   6262.906     712775  0.000e+00
    20.0765   4.793711    190.880     327397   6262.520     712890  0.000e+00
    20.0706   4.792974    190.996     327471   6262.125     712999  0.000e+00
    20.0653   4.793003    191.120     327537   6262.141     713116  0.000e+00
    20.0624   4.792675    191.236     327574   6261.965     713224  0.000e+00
    20.0587   4.792077    191.368     327620   6261.645     713348  0.000e+00
    20.0545   4.791676    191.508     327673   6261.430     713480  0.000e+00
    20.0506   4.791341    191.665     327722   6261.250     713627  0.000e+00
    20.0467   4.790721    191.839     327770   6260.918     713790  0.000e+00
    20.0416   4.789948    192.029     327834   6260.504     713969  0.000e+00
    20.0359   4.789590    192.235     327906   6260.313     714162  0.000e+00
    20.0309   4.789036    192.449     327969   6260.016     714363  0.000e+00
    20.0255   4.788380    192.660     328036   6259.664     714561  0.000e+00
    20.0200   4.787928    192.866     328106   6259.422     714754  0.000e+00
    20.0147   4.787564    193.063     328172   6259.227     714939  0.000e+00
    20.0108   4.787688    193.253     328221   6259.293     715117  0.000e+00
    20.0089   4.787338    193.433     328245   6259.105     715286  0.000e+00
    20.0059   4.786660    193.594     328282   6258.742     715437  0.000e+00
    20.0014   4.786186    193.734     328339   6258.488     715569  0.000e+00
    19.9966   4.785567    193.859     328399   6258.156     715686  0.000e+00
    19.9907   4.784699    193.975     328473   6257.691     715795  0.000e+00
    19.9839   4.784328    194.084     328559   6257.492     715897  0.000e+00
    19.9781   4.783890    194.188     328632   6257.258     715995  0.000e+00
    19.9730   4.783227    194.293     328696   6256.902     716093  0.000e+00
    19.9676   4.782892    194.404     328764   6256.723     716197  0.000e+00
    19.9630   4.782608    194.510     328821   6256.570     716297  0.000e+00
    19.9595   4.782142    194.625     328865   6256.320     716405  0.000e+00
    19.9554   4.781427    194.768     328917   6255.938     716539  0.000e+00
    19.9503   4.780976    194.909     328981   6255.695     716671  0.000e+00
    19.9452   4.780553    195.047     329045   6255.469     716801  0.000e+00
    19.9404   4.780131    195.177     329106   6255.242     716923  0.000e+00
    19.9361   4.779584    195.297     329160   6254.949     717035  0.000e+00
    19.9307   4.779038    195.399     329228   6254.656     717131  0.000e+00
    19.9258   4.778994    195.486     329289   6254.633     717213  0.000e+00
    19.9227   4.778754    195.565     329328   6254.504     717287  0.000e+00
    19.9200   4.778390    195.636     329363   6254.309     717353  0.000e+00
    19.9165   4.777727    195.700     329406   6253.953     717413  0.000e+00
    19.9110   4.776984    195.756     329476   6253.555     717466  0.000e+00
    19.9048   4.776357    195.816     329554   6253.219     717522  0.000e+00
    19.8985   4.775804    195.878     329633   6252.922     717580  0.000e+00
    19.8930   4.775607    195.957     329702   6252.816     717655  0.000e+00
    19.8884   4.775185    196.055     329760   6252.590     717747  0.000e+00
    19.8842   4.774653    196.159     329813   6252.305     717844  0.000e+00
    19.8799   4.774209    196.275     329868   6252.066     717953  0.000e+00
    19.8758   4.774093    196.402     329919   6252.004     718072  0.000e+00
    19.8732   4.773809    196.538     329952   6251.852     718200  0.000e+00
    19.8697   4.772855    196.700     329996   6251.340     718352  0.000e+00
    19.8631   4.771879    196.878     330080   6250.816     718519  0.000e+00
    19.8562   4.771741    197.079     330167   6250.742     718707  0.000e+00
    19.8517   4.771341    197.299     330223   6250.527     718914  0.000e+00
    19.8471   4.770533    197.529     330281   6250.094     719130  0.000e+00
    19.8415   4.770358    197.785     330352   6250.000     719370  0.000e+00
    19.8373   4.770074    198.033     330405   6249.848     719603  0.000e+00
    19.8337   4.769718    198.286     330450   6249.656     719840  0.000e+00
    19.8304   4.769434    198.531     330492   6249.504     720070  0.000e+00
    19.8269   4.768845    198.753     330536   6249.188     720278  0.000e+00
    19.8223   4.768146    198.957     330595   6248.813     720470  0.000e+00
    19.8166   4.767717    199.143     330666   6248.582     720644  0.000e+00
    19.8119   4.767309    199.306     330726   6248.363     720797  0.000e+00
    19.8071   4.766887    199.444     330786   6248.137     720927  0.000e+00
    19.8028   4.766487    199.564     330841   6247.922     721039  0.000e+00
    19.7988   4.766014    199.653     330892   6247.668     721123  0.000e+00
    19.7946   4.765730    199.746     330945   6247.516     721210  0.000e+00
    19.7906   4.764922    199.845     330995   6247.082     721303  0.000e+00
    19.7849   4.764224    199.963     331067   6246.707     721414  0.000e+00
    19.7786   4.763802    200.118     331147   6246.480     721559  0.000e+00
    19.7731   4.763358    200.298     331217   6246.242     721728  0.000e+00
    19.7686   4.763082    200.495     331273   6246.094     721913  0.000e+00
    19.7652   4.762879    200.689     331316   6245.984     722095  0.000e+00
    19.7619   4.762544    200.885     331358   6245.805     722279  0.000e+00
    19.7587   4.762115    201.077     331399   6245.574     722459  0.000e+00
    19.7541   4.761315    201.259     331457   6245.145     722630  0.000e+00
    19.7485   4.760726    201.419     331528   6244.828     722780  0.000e+00
    19.7427   4.760253    201.534     331601   6244.574     722888  0.000e+00
    19.7371   4.759693    201.608     331672   6244.273     722957  0.000e+00
    19.7312   4.759257    201.646     331747   6244.039     722993  0.000e+00
    19.7262   4.758798    201.653     331810   6243.793     722999  0.000e+00
    19.7215   4.758428    201.637     331870   6243.594     722984  0.000e+00
    19.7171   4.758013    201.620     331925   6243.371     722968  0.000e+00
    19.7126   4.757482    201.589     331983   6243.086     722939  0.000e+00
    19.7075   4.757060    201.558     332047   6242.859     722910  0.000e+00
    19.7029   4.756479    201.542     332105   6242.547     722895  0.000e+00
    19.6979   4.755919    201.548     332169   6242.246     722901  0.000e+00
    19.6930   4.755643    201.627     332231   6242.098     722975  0.000e+00
    19.6887   4.755105    201.822     332286   6241.809     723158  0.000e+00
    19.6841   4.754734    201.983     332344   6241.609     723309  0.000e+00
    19.6804   4.754494    202.160     332391   6241.480     723475  0.000e+00
    19.6769   4.754015    202.414     332436   6241.223     723713  0.000e+00
    19.6729   4.753586    202.657     332486   6240.992     723941  0.000e+00
    19.6685   4.752925    202.909     332542   6240.637     724178  0.000e+00
    19.6637   4.752467    203.167     332603   6240.391     724420  0.000e+00
    19.6587   4.751980    203.426     332667   6240.129     724663  0.000e+00
    19.6535   4.751559    203.666     332733   6239.902     724888  0.000e+00
    19.6483   4.750970    203.884     332799   6239.586     725093  0.000e+00
    19.6428   4.750360    204.077     332868   6239.258     725274  0.000e+00
    19.6370   4.749829    204.243     332942   6238.973     725430  0.000e+00
    19.6321   4.749713    204.383     333005   6238.910     725561  0.000e+00
    19.6281   4.748994    204.498     333055   6238.523     725669  0.000e+00
    19.6227   4.748165    204.576     333124   6238.078     725742  0.000e+00
    19.6163   4.747875    204.639     333205   6237.922     725801  0.000e+00
    19.6116   4.747708    204.692     333265   6237.832     725851  0.000e+00
    19.6085   4.747505    204.752     333305   6237.723     725907  0.000e+00
    19.6059   4.746902    204.837     333338   6237.398     725987  0.000e+00
    19.6012   4.746204    204.947     333397   6237.023     726090  0.000e+00
    19.5960   4.745580    205.090     333464   6236.688     726224  0.000e+00
    19.5892   4.744701    205.248     333550   6236.215     726373  0.000e+00
    19.5828   4.744868    205.416     333632   6236.305     726530  0.000e+00
    19.5787   4.744490    205.608     333684   6236.102     726710  0.000e+00
    19.5745   4.744113    205.827     333737   6235.898     726916  0.000e+00
    19.5699   4.743307    206.088     333796   6235.465     727161  0.000e+00
    19.5647   4.743133    206.338     333862   6235.371     727395  0.000e+00
    19.5604   4.742639    206.602     333917   6235.105     727643  0.000e+00
    19.5551   4.741826    206.831     333984   6234.668     727858  0.000e+00
    19.5483   4.740969    207.045     334071   6234.207     728059  0.000e+00
    19.5408   4.740359    207.247     334167   6233.879     728248  0.000e+00
    19.5342   4.740018    207.404     334251   6233.695     728396  0.000e+00
    19.5285   4.739633    207.524     334324   6233.488     728508  0.000e+00
    19.5244   4.739437    207.604     334376   6233.383     728583  0.000e+00
    19.5213   4.739401    207.649     334416   6233.363     728625  0.000e+00
    19.5198   4.739191    207.672     334434   6233.250     728647  0.000e+00
    19.5178   4.738719    207.681     334460   6232.996     728655  0.000e+00
    19.5151   4.738341    207.684     334494   6232.793     728658  0.000e+00
    19.5115   4.737521    207.686     334540   6232.352     728660  0.000e+00
    19.5060   4.736577    207.706     334611   6231.844     728679  0.000e+00
    19.4988   4.735895    207.746     334703   6231.477     728716  0.000e+00
    19.4922   4.735438    207.812     334787   6231.230     728778  0.000e+00
    19.4867   4.735075    207.908     334857   6231.035     728868  0.000e+00
    19.4824   4.734879    208.028     334912   6230.930     728981  0.000e+00
    19.4788   4.734458    208.168     334958   6230.703     729112  0.000e+00
    19.4748   4.733878    208.309     335009   6230.391     729245  0.000e+00
    19.4695   4.733131    208.452     335077   6229.988     729379  0.000e+00
    19.4634   4.732601    208.591     335155   6229.703     729509  0.000e+00
    19.4574   4.732072    208.724     335231   6229.418     729634  0.000e+00
    19.4514   4.731426    208.858     335308   6229.070     729760  0.000e+00
    19.4460   4.731324    208.992     335377   6229.016     729885  0.000e+00
    19.4424   4.731129    209.123     335423   6228.910     730008  0.000e+00
    19.4388   4.730476    209.253     335469   6228.559     730130  0.000e+00
    19.4343   4.729961    209.391     335527   6228.281     730260  0.000e+00
    19.4300   4.729518    209.538     335582   6228.043     730398  0.000e+00
    19.4255   4.729120    209.707     335640   6227.828     730556  0.000e+00
    19.4212   4.728801    209.875     335695   6227.656     730714  0.000e+00
    19.4175   4.728518    210.052     335742   6227.504     730880  0.000e+00
    19.4141   4.727981    210.242     335786   6227.215     731058  0.000e+00
    19.4095   4.727220    210.431     335844   6226.805     731236  0.000e+00
    19.4042   4.727053    210.624     335912   6226.715     731417  0.000e+00
    19.3995   4.726415    210.827     335973   6226.371     731607  0.000e+00
    19.3945   4.725944    211.013     336036   6226.117     731782  0.000e+00
    19.3902   4.725886    211.209     336092   6226.086     731966  0.000e+00
    19.3871   4.725618    211.393     336131   6225.941     732138  0.000e+00
    19.3842   4.725139    211.579     336169   6225.684     732313  0.000e+00
    19.3799   4.724335    211.764     336224   6225.250     732486  0.000e+00
    19.3738   4.723733    211.936     336302   6224.926     732648  0.000e+00
    19.3683   4.723559    212.115     336372   6224.832     732816  0.000e+00
    19.3639   4.723001    212.285     336428   6224.531     732975  0.000e+00
    19.3588   4.722334    212.452     336494   6224.172     733132  0.000e+00
    19.3535   4.722225    212.615     336562   6224.113     733285  0.000e+00
    19.3498   4.721841    212.780     336610   6223.906     733440  0.000e+00
    19.3461   4.721233    212.942     336657   6223.578     733592  0.000e+00
    19.3408   4.720530    213.096     336725   6223.199     733736  0.000e+00
    19.3358   4.720233    213.232     336789   6223.039     733864  0.000e+00
    19.3314   4.719653    213.355     336846   6222.727     733979  0.000e+00
    19.3259   4.718964    213.469     336916   6222.355     734086  0.000e+00
    19.3202   4.718356    213.567     336990   6222.027     734178  0.000e+00
    19.3145   4.718073    213.654     337062   6221.875     734260  0.000e+00
    19.3099   4.717537    213.732     337122   6221.586     734333  0.000e+00
    19.3049   4.717052    213.810     337186   6221.324     734406  0.000e+00
    19.3001   4.716668    213.869     337247   6221.117     734461  0.000e+00
    19.2956   4.716139    213.926     337305   6220.832     734515  0.000e+00
    19.2907   4.715697    213.992     337369   6220.594     734577  0.000e+00
    19.2858   4.715197    214.057     337432   6220.324     734638  0.000e+00
    19.2810   4.714784    214.118     337493   6220.102     734695  0.000e+00
    19.2767   4.714415    214.179     337549   6219.902     734752  0.000e+00
    19.2732   4.714263    214.233     337594   6219.820     734803  0.000e+00
    19.2698   4.713459    214.284     337637   6219.387     734851  0.000e+00
    19.2645   4.712727    214.329     337706   6218.992     734893  0.000e+00
    19.2578   4.711742    214.363     337791   6218.461     734925  0.000e+00
    19.2503   4.711445    214.395     337888   6218.301     734955  0.000e+00
    19.2450   4.711388    214.430     337956   6218.270     734988  0.000e+00
    19.2418   4.711011    214.463     337997   6218.066     735019  0.000e+00
    19.2381   4.710475    214.513     338045   6217.777     735065  0.000e+00
    19.2338   4.710258    214.582     338100   6217.660     735130  0.000e+00
    19.2305   4.709845    214.682     338143   6217.438     735224  0.000e+00
    19.2264   4.709208    214.831     338196   6217.094     735364  0.000e+00
    19.2220   4.709042    215.012     338252   6217.004     735534  0.000e+00
    19.2186   4.708571    215.232     338296   6216.750     735740  0.000e+00
    19.2148   4.708028    215.488     338345   6216.457     735980  0.000e+00
    19.2099   4.707442    215.774     338409   6216.141     736249  0.000e+00
    19.2043   4.706863    216.087     338480   6215.828     736542  0.000e+00
    19.1990   4.706813    216.413     338549   6215.801     736848  0.000e+00
    19.1960   4.706639    216.713     338587   6215.707     737130  0.000e+00
    19.1933   4.706227    217.004     338623   6215.484     737403  0.000e+00
    19.1899   4.705865    217.262     338666   6215.289     737645  0.000e+00
    19.1861   4.705228    217.490     338715   6214.945     737859  0.000e+00
    19.1810   4.704548    217.727     338781   6214.578     738081  0.000e+00
    19.1757   4.703969    217.891     338850   6214.266     738235  0.000e+00
    19.1697   4.703144    218.018     338927   6213.820     738354  0.000e+00
    19.1627   4.702695    218.134     339017   6213.578     738463  0.000e+00
    19.1570   4.702341    218.227     339091   6213.387     738550  0.000e+00
    19.1520   4.701871    218.325     339155   6213.133     738642  0.000e+00
    19.1474   4.701277    218.434     339215   6212.813     738744  0.000e+00
    19.1418   4.700547    218.553     339287   6212.418     738856  0.000e+00
    19.1362   4.700467    218.691     339360   6212.375     738985  0.000e+00
    19.1326   4.700525    218.838     339406   6212.406     739123  0.000e+00
    19.1304   4.700113    219.011     339434   6212.184     739286  0.000e+00
    19.1277   4.699751    219.164     339469   6211.988     739429  0.000e+00
    19.1244   4.698977    219.305     339512   6211.570     739561  0.000e+00
    19.1184   4.697769    219.432     339590   6210.918     739681  0.000e+00
    19.1109   4.697748    219.532     339687   6210.906     739774  0.000e+00
    19.1059   4.697466    219.613     339751   6210.754     739850  0.000e+00
    19.1014   4.696670    219.666     339809   6210.324     739900  0.000e+00
    19.0956   4.696092    219.696     339884   6210.012     739928  0.000e+00
    19.0901   4.695694    219.698     339956   6209.797     739930  0.000e+00
    19.0847   4.694906    219.681     340026   6209.371     739914  0.000e+00
    19.0783   4.694551    219.655     340108   6209.180     739890  0.000e+00
    19.0735   4.694551    219.622     340170   6209.180     739859  0.000e+00
    19.0698   4.694139    219.589     340218   6208.957     739828  0.000e+00
    19.0660   4.693315    219.567     340267   6208.512     739807  0.000e+00
    19.0602   4.692570    219.558     340343   6208.109     739799  0.000e+00
    19.0543   4.692194    219.572     340419   6207.906     739812  0.000e+00
    19.0490   4.691688    219.612     340488   6207.633     739849  0.000e+00
    19.0443   4.691472    219.684     340548   6207.516     739917  0.000e+00
    19.0408   4.691255    219.786     340594   6207.398     740013  0.000e+00
    19.0383   4.691089    219.908     340626   6207.309     740127  0.000e+00
    19.0356   4.690380    220.064     340661   6206.926     740273  0.000e+00
    19.0313   4.689961    220.233     340717   6206.699     740432  0.000e+00
    19.0274   4.689687    220.419     340768   6206.551     740607  0.000e+00
    19.0234   4.689246    220.624     340819   6206.313     740799  0.000e+00
    19.0197   4.688935    220.837     340867   6206.145     740999  0.000e+00
    19.0157   4.688559    221.055     340920   6205.941     741203  0.000e+00
    19.0121   4.687931    221.283     340966   6205.602     741417  0.000e+00
    19.0069   4.687078    221.519     341033   6205.141     741639  0.000e+00
    19.0002   4.686573    221.769     341121   6204.867     741873  0.000e+00
    18.9944   4.686313    222.016     341196   6204.727     742105  0.000e+00
    18.9900   4.685735    222.249     341253   6204.414     742323  0.000e+00
    18.9845   4.685106    222.493     341324   6204.074     742552  0.000e+00
    18.9794   4.684947    222.704     341390   6203.988     742750  0.000e+00
    18.9755   4.684557    222.886     341441   6203.777     742921  0.000e+00